aX,aY,aZ,gX,gY,gZ
-0.245,0.024,1.229,12.756,39.795,25.391
0.010,0.021,0.570,-78.613,129.883,-0.183
0.272,-0.096,0.341,-94.055,89.539,-16.113
0.233,-0.026,0.638,9.888,-10.132,-4.517
0.143,0.030,1.085,56.335,-46.997,3.235
0.143,-0.063,1.248,53.284,-36.865,-0.977
0.181,0.031,1.559,46.021,-18.372,-0.854
0.088,0.029,1.615,59.814,16.113,1.770
0.113,0.030,1.365,-18.188,80.261,-3.418
0.147,-0.067,0.667,-46.753,76.172,-15.625
-0.004,-0.104,0.371,53.833,-8.850,1.709
0.184,-0.080,0.953,159.790,-99.304,7.996
0.172,-0.185,0.878,84.778,-15.686,-0.916
0.084,-0.184,0.371,-68.420,69.397,-5.798
0.125,-0.165,0.085,-182.068,137.817,-12.939
0.248,-0.263,-0.122,-146.057,86.792,-14.282
0.169,-0.211,-0.124,-163.513,48.523,-7.568
0.191,0.069,0.815,-27.039,-92.407,16.724
0.182,0.178,3.988,297.058,-401.184,57.495
-0.408,0.310,2.865,39.490,-122.131,62.317
-0.108,-0.057,0.559,-16.907,242.737,7.568
0.147,-0.009,0.278,-182.739,178.833,-15.686
0.253,-0.152,0.078,-3.906,50.720,-13.428
0.247,-0.153,0.103,-12.512,-0.488,-1.404
0.203,0.061,0.751,16.907,-42.175,10.803
0.221,0.134,1.476,127.991,-133.240,15.991
-0.086,-0.041,2.020,108.704,-99.426,8.850
0.041,0.083,1.615,11.902,-12.939,4.028
0.050,-0.096,1.232,15.076,71.899,-3.601
0.206,-0.089,1.007,-62.073,95.520,-14.160
0.208,-0.094,0.618,-52.490,73.669,-4.211
0.200,-0.067,0.429,18.311,20.386,7.263
0.190,-0.079,0.459,40.588,-13.062,8.423
0.072,-0.132,0.444,7.690,0.732,2.441
0.071,-0.170,0.285,-53.528,19.348,-1.831
0.104,-0.180,0.293,-91.248,23.865,-2.747
0.496,0.104,1.424,-9.949,-55.115,5.737
0.320,0.085,2.359,183.716,-202.209,28.870
-0.251,0.139,1.929,36.743,-92.102,30.151
-0.072,-0.058,0.734,-12.451,106.140,8.362
0.165,-0.025,0.491,-124.329,101.563,-11.230
0.303,-0.059,0.544,-16.418,32.166,-8.728
0.139,0.046,0.916,26.306,-26.428,0.305
0.149,0.009,1.137,43.701,-28.992,-2.991
0.119,-0.025,1.272,45.593,-28.259,-5.432
0.040,-0.122,1.194,38.330,-3.723,-1.648
0.048,-0.156,1.002,-2.197,26.306,-1.099
0.136,-0.141,0.753,-45.410,45.105,0.610
0.273,-0.112,0.508,-53.589,42.419,3.540
0.167,-0.000,0.615,-36.804,19.043,8.789
0.189,0.115,0.978,17.212,-25.574,12.878
0.164,0.079,1.120,56.946,-52.429,9.827
0.063,-0.053,1.175,40.833,-36.621,2.075
0.129,-0.183,1.133,25.513,-10.071,-3.296
0.120,-0.084,1.074,-3.174,4.333,3.540
0.116,-0.051,0.899,-18.311,15.320,7.507
0.165,-0.004,0.830,-21.545,18.188,6.348
0.154,0.051,0.880,-9.949,8.240,5.005
0.140,-0.010,0.946,9.827,-4.456,0.061
0.131,-0.086,0.999,19.714,-8.118,-3.357
0.126,-0.084,1.025,11.719,-5.066,-0.427
0.131,-0.057,0.979,-0.305,1.526,3.296
0.188,0.043,1.005,-5.005,4.517,5.615
0.151,0.165,1.363,27.039,-4.578,4.456
0.173,0.081,1.557,63.110,16.479,-5.005
0.106,-0.082,1.364,6.348,44.861,-11.841
0.124,-0.130,0.841,-10.254,52.490,-15.564
0.128,-0.108,0.389,9.277,20.447,-0.305
0.202,-0.154,0.361,46.143,-9.949,1.099
0.103,-0.182,0.298,-11.719,22.461,-5.249
0.125,-0.189,0.135,-84.106,49.377,-7.690
0.211,-0.242,0.028,-115.479,45.288,-8.118
0.230,0.080,0.998,-103.516,-3.296,2.686
0.420,-0.241,1.844,173.340,-216.003,17.700
-0.125,0.172,2.825,108.643,-250.000,46.509
-0.261,-0.012,1.067,7.812,106.812,23.621
-0.027,0.069,0.442,-114.929,174.500,-3.235
0.217,-0.154,0.114,-86.060,89.600,-21.240
0.379,-0.107,0.513,12.207,-18.005,-8.606
0.182,0.029,1.076,65.613,-61.707,3.418
0.090,0.026,1.311,67.078,-53.955,5.981
0.083,-0.191,1.158,38.391,-20.020,-0.977
0.090,0.063,1.375,3.540,1.404,1.953
0.111,0.012,1.329,37.415,13.428,8.118
0.172,0.063,1.400,-2.686,58.472,-4.333
0.192,-0.129,0.940,-33.936,69.641,-8.057
0.112,-0.088,0.560,-10.681,43.640,-0.610
0.120,-0.073,0.478,50.598,-12.878,10.437
0.221,-0.140,0.508,45.654,-12.817,4.639
0.055,-0.161,0.292,-33.569,28.137,-1.221
0.162,-0.170,0.115,-105.408,54.626,-4.028
0.096,-0.225,0.012,-110.352,28.931,-3.723
0.484,0.086,1.323,-3.540,-71.228,10.986
0.195,0.112,3.142,217.529,-290.222,31.799
-0.361,0.184,2.091,20.020,-69.946,38.391
-0.148,-0.011,0.630,-26.306,162.231,8.057
0.341,-0.121,0.410,-12.695,31.433,-16.052
0.175,0.004,0.908,39.124,-47.791,-2.686
0.174,-0.003,1.194,62.561,-46.570,1.526
0.172,0.039,1.497,57.251,-36.133,0.000
0.039,-0.112,1.611,68.359,-2.502,-0.732
0.088,0.118,1.507,-12.146,71.838,-3.357
0.221,-0.123,0.844,-52.368,87.097,-10.437
0.006,-0.049,0.484,-11.047,31.982,-0.549
0.116,0.006,0.832,137.329,-80.078,14.282
0.217,-0.146,0.992,132.446,-57.922,5.798
0.036,-0.180,0.614,-13.000,38.818,-1.709
0.157,-0.128,0.210,-152.222,114.868,-7.507
0.189,-0.218,-0.056,-156.067,107.117,-11.902
0.101,-0.226,-0.117,-138.550,41.138,-3.601
0.472,0.169,1.191,-62.256,-37.781,13.428
0.259,-0.148,2.610,262.085,-337.036,37.415
-0.233,0.283,3.287,62.500,-204.529,54.810
-0.128,-0.112,0.847,7.019,160.828,12.878
0.105,0.074,0.478,-164.062,203.491,-13.367
0.248,-0.180,0.043,-47.791,73.914,-16.235
0.268,-0.171,0.115,-1.587,-11.047,-3.052
0.171,-0.026,0.783,34.485,-44.983,7.385
0.304,-0.144,1.793,150.330,-125.610,13.550
-0.316,0.247,2.844,34.973,-144.104,47.729
-0.105,-0.113,0.660,-3.845,198.730,3.418
0.120,0.034,0.389,-180.176,183.472,-16.541
0.270,-0.185,0.066,-22.156,57.678,-17.883
0.241,-0.173,0.117,-6.653,-11.841,-3.113
0.166,0.017,0.956,46.082,-56.946,8.728
0.307,-0.057,2.209,166.992,-133.850,14.343
-0.062,0.140,2.205,57.739,-32.349,4.333
0.078,-0.147,1.113,-11.597,130.249,-4.578
0.155,-0.064,0.537,-101.501,114.929,-21.484
0.092,-0.151,0.217,67.749,-5.310,5.066
0.257,-0.048,0.824,121.643,-83.740,13.489
0.218,-0.167,0.753,60.486,-11.658,0.793
0.108,-0.163,0.381,-54.810,50.964,-1.770
0.123,-0.136,0.091,-161.072,105.530,-7.080
0.169,-0.218,-0.030,-138.794,57.434,-7.202
0.379,0.046,0.763,-107.239,-8.545,6.836
0.328,-0.257,1.490,195.801,-255.554,26.062
-0.176,0.269,3.450,128.967,-283.752,57.617
-0.276,0.031,1.290,11.536,115.112,22.827
-0.016,0.090,0.501,-120.789,216.614,-11.047
0.255,-0.164,0.069,-110.657,108.704,-23.804
0.319,-0.190,0.109,3.845,-2.136,-10.315
0.167,-0.030,0.704,20.569,-33.813,3.662
0.248,0.079,1.391,105.652,-102.844,10.742
0.040,-0.122,1.508,105.347,-68.054,9.521
0.103,-0.016,1.633,25.085,-11.963,1.404
0.069,-0.073,1.331,15.198,42.908,2.380
0.169,0.033,1.254,-35.828,87.280,-5.005
0.100,-0.061,0.771,-46.936,77.087,-1.953
0.029,-0.046,0.393,2.563,31.677,1.160
0.158,-0.060,0.492,70.313,-40.833,7.019
0.259,-0.187,0.616,53.101,-20.264,-3.845
0.146,-0.175,0.298,-55.908,39.490,-5.493
0.131,-0.160,0.119,-128.174,64.514,-4.517
0.034,-0.210,0.039,-87.280,12.024,-0.549
0.450,0.149,1.555,20.935,-98.511,14.038
0.137,0.140,3.222,209.229,-280.090,30.212
-0.313,0.162,1.794,14.709,-31.006,34.790
-0.136,0.027,0.644,-38.147,163.879,5.188
0.126,-0.035,0.300,-131.287,107.300,-15.015
0.297,-0.087,0.455,-13.245,30.945,-15.259
0.200,0.003,0.922,40.894,-49.622,-3.723
0.125,-0.010,1.198,63.538,-48.584,0.916
0.109,-0.156,1.165,46.448,-29.358,-0.977
0.115,0.079,1.436,22.339,-10.986,0.854
0.070,-0.012,1.395,41.687,11.597,2.686
0.126,-0.120,1.251,-3.113,60.181,-10.803
0.149,-0.124,0.918,-42.786,67.078,-6.165
0.151,-0.095,0.523,-14.587,44.006,2.930
0.167,-0.059,0.431,30.212,-3.662,10.864
0.154,-0.133,0.489,32.288,-4.883,3.601
0.056,-0.147,0.309,-37.903,26.367,-2.014
0.152,-0.166,0.132,-94.788,41.260,-3.662
0.127,-0.100,0.530,-83.130,2.625,-1.404
0.445,0.101,1.682,75.439,-125.366,14.038
0.068,0.122,2.649,153.259,-220.703,33.813
-0.257,0.069,1.500,10.376,-3.052,26.184
-0.036,0.018,0.663,-55.298,133.301,0.366
0.206,-0.050,0.453,-102.173,87.036,-13.489
0.258,0.072,1.016,35.461,-8.179,-6.226
0.316,0.140,1.611,103.638,-31.494,-1.953
0.119,-0.037,1.554,46.936,24.475,-11.047
0.081,-0.118,0.955,-14.160,48.279,-17.212
-0.121,-0.073,0.450,12.939,10.864,1.892
0.136,-0.081,0.706,97.046,-59.570,3.235
0.209,-0.228,0.875,85.693,-29.297,-3.784
0.085,-0.185,0.619,-29.053,38.513,-3.479
0.094,-0.153,0.213,-124.207,83.984,-3.174
0.087,-0.151,0.083,-132.019,80.566,-5.371
0.153,-0.169,0.323,-101.013,24.780,-5.615
0.389,0.097,1.523,-7.568,-64.453,5.615
0.426,-0.024,2.343,186.401,-214.539,25.391
-0.131,0.110,2.068,42.603,-129.211,34.119
-0.126,-0.074,0.827,-3.662,87.769,18.311
0.078,0.002,0.563,-100.891,100.891,-1.404
0.259,-0.036,0.558,-31.555,38.086,-3.235
0.185,0.062,0.881,22.949,-19.287,2.808
0.155,0.008,1.082,39.795,-23.254,1.282
0.135,-0.172,1.055,32.043,-16.785,-6.104
0.105,-0.105,1.041,11.047,-5.981,0.854
0.127,-0.059,0.936,-9.766,4.089,6.531
0.140,0.009,0.895,-12.939,8.240,7.080
0.154,0.085,1.020,-2.319,2.197,5.005
0.130,0.128,1.432,44.434,-11.292,-1.953
0.164,0.046,1.748,66.223,14.038,-7.690
0.141,-0.139,1.163,-17.944,61.218,-10.986
0.126,-0.104,0.580,-43.152,63.843,-12.268
0.173,-0.031,0.625,69.824,-21.545,8.667
0.108,-0.150,0.732,157.349,-69.336,7.080
0.068,-0.152,0.566,13.550,14.038,-1.160
0.036,-0.157,0.191,-100.159,89.722,-11.230
0.253,-0.247,-0.010,-172.485,127.319,-21.973
0.245,-0.302,-0.072,-140.625,57.251,-16.968
0.262,-0.102,0.341,-99.792,-15.747,8.911
0.260,-0.381,1.560,199.585,-279.602,33.569
-0.205,0.267,3.685,123.413,-301.941,68.665
-0.298,0.072,1.492,11.536,113.525,24.780
-0.012,0.103,0.502,-111.572,241.882,-10.071
0.224,-0.156,0.012,-108.704,101.746,-18.188
0.245,-0.158,0.092,8.667,-2.991,-7.324
0.268,0.015,0.761,13.550,-29.419,3.540
0.235,0.110,1.391,109.680,-111.023,12.451
0.036,-0.022,2.084,107.483,-89.600,10.681
-0.029,0.068,1.682,25.085,-5.676,4.944
0.172,0.022,1.336,-2.258,107.788,-5.981
0.138,-0.116,0.839,-61.768,95.825,-8.179
0.079,-0.043,0.447,-19.714,54.321,-1.343
0.149,-0.049,0.565,101.318,-53.833,11.536
0.266,-0.161,0.738,107.056,-55.420,5.676
0.103,-0.210,0.457,-20.142,34.607,-2.563
0.084,-0.116,0.175,-146.973,97.778,-3.296
0.189,-0.224,-0.033,-132.385,69.397,-7.141
0.095,-0.158,0.113,-105.591,-3.174,3.357
0.388,-0.137,1.194,119.690,-180.359,24.902
-0.061,0.248,3.375,169.006,-320.435,53.162
-0.320,0.166,1.761,9.216,49.011,33.630
-0.093,0.054,0.525,-65.674,213.928,-6.531
0.144,-0.067,0.141,-145.081,115.540,-20.020
-0.338,0.123,1.710,12.329,68.054,31.921
-0.042,0.064,0.486,-85.632,251.465,-9.216
0.177,-0.123,0.036,-139.526,116.211,-15.869
0.295,-0.156,0.075,12.878,3.967,-9.827
0.300,0.013,0.683,-4.456,-15.869,-0.122
0.278,0.078,1.579,133.667,-123.962,12.024
-0.139,0.181,2.712,124.634,-118.347,13.062
0.087,-0.180,1.122,15.076,95.825,3.784
0.064,-0.009,0.607,-93.201,134.094,-15.503
0.055,-0.112,0.210,54.749,-3.479,3.418
0.215,-0.186,0.893,166.809,-114.075,11.902
0.157,-0.152,0.948,118.408,-35.645,6.592
0.038,-0.127,0.456,-24.048,64.697,2.380
0.037,-0.076,0.111,-201.233,161.682,-12.390
0.238,-0.238,-0.091,-180.786,128.723,-27.771
0.290,-0.308,-0.187,-144.836,39.307,-20.081
0.279,-0.136,0.325,-53.101,-61.768,1.831
0.354,-0.223,2.841,264.893,-364.014,42.175
-0.269,0.271,3.534,77.515,-237.793,63.049
-0.271,-0.005,1.196,15.259,149.170,18.188
0.039,0.103,0.507,-135.925,252.441,-15.991
0.205,-0.204,-0.075,-84.473,81.604,-14.343
0.312,-0.146,0.162,4.089,-3.845,-7.080
0.329,0.117,1.026,28.259,-35.156,5.981
0.298,0.024,1.649,158.386,-126.587,18.860
-0.094,0.098,2.014,88.013,-71.960,10.193
0.009,-0.190,1.031,22.400,56.335,-6.775
0.148,-0.091,0.645,-80.933,86.670,-13.550
0.185,-0.121,0.353,-41.565,55.969,-6.775
0.195,-0.168,0.402,0.916,13.245,-4.639
0.110,-0.148,0.517,4.211,-5.981,1.038
0.057,-0.174,0.554,-9.277,-16.296,5.005
0.099,-0.059,0.725,-33.997,-17.517,7.141
0.357,0.101,1.434,3.174,-51.086,11.963
0.240,0.061,1.891,116.333,-111.145,21.973
-0.124,0.032,1.476,24.414,-48.523,20.508
0.032,-0.106,0.845,-15.381,58.472,2.258
0.199,-0.068,0.678,-70.862,59.448,-2.808
0.183,0.046,0.779,-18.738,16.907,3.296
0.129,0.032,0.970,23.865,-11.658,3.052
0.123,-0.117,0.985,29.724,-14.099,-3.906
0.120,-0.113,1.004,14.832,-7.324,-2.441
0.124,-0.041,1.003,-1.831,-0.671,3.723
0.130,-0.039,0.935,-4.761,3.540,4.333
0.138,-0.000,0.950,-2.502,2.319,3.906
0.132,-0.027,0.968,4.578,-0.854,2.014
0.125,-0.074,0.968,9.521,-2.380,0.061
0.125,-0.060,0.971,4.456,-0.549,1.587
0.128,-0.035,0.955,-1.160,1.831,3.235
0.130,-0.022,0.948,-0.488,1.648,3.235
0.129,-0.033,0.957,3.357,0.122,2.136
0.126,-0.049,0.972,5.798,-1.160,1.465
0.117,-0.060,0.969,4.944,-0.732,1.587
0.166,0.040,1.182,5.127,-0.977,2.747
0.139,-0.006,1.465,50.354,-11.475,3.296
0.110,0.145,1.570,24.963,26.062,2.441
0.071,-0.079,0.879,-3.723,56.091,-8.179
0.104,-0.022,0.829,-12.390,37.231,-5.371
0.182,-0.027,0.938,109.680,-40.955,0.610
0.132,-0.104,0.721,82.031,-23.987,-1.221
0.109,-0.223,0.173,-53.284,52.063,-8.972
0.072,-0.174,0.088,-149.292,111.755,-15.503
0.245,-0.262,-0.005,-128.967,79.590,-20.874
0.192,-0.260,-0.060,-106.506,-14.099,-3.174
0.357,-0.386,0.998,89.355,-164.368,11.169
-0.125,0.238,3.386,158.203,-357.117,66.162
-0.477,0.180,2.045,17.883,27.649,38.391
-0.121,-0.028,0.492,-43.213,258.362,-10.742
0.149,-0.067,0.156,-157.471,134.399,-20.020
0.343,-0.220,0.066,-7.690,37.476,-18.616
0.336,-0.129,0.555,16.418,-35.645,-2.075
0.211,0.072,1.122,75.562,-81.482,14.343
0.075,0.083,1.363,97.046,-79.224,17.883
-0.010,-0.110,1.350,44.983,-32.532,5.127
0.144,-0.071,1.207,-1.770,8.179,0.793
0.140,0.151,1.608,12.024,3.540,6.287
0.036,0.099,1.407,23.254,41.199,3.784
0.101,-0.112,0.966,-41.992,94.055,-14.832
0.112,-0.058,0.479,-40.894,69.885,-10.071
0.160,-0.035,0.618,87.646,-44.556,9.583
0.232,-0.142,0.774,131.592,-74.707,6.104
0.100,-0.205,0.538,3.723,18.555,-2.258
0.104,-0.125,0.180,-137.390,96.863,-7.202
0.183,-0.210,-0.036,-168.701,104.736,-15.076
0.087,-0.167,0.069,-104.492,5.920,-2.502
0.429,-0.156,1.102,95.093,-168.945,19.287
-0.065,0.182,3.277,167.297,-330.994,50.110
-0.352,0.158,1.954,13.000,-3.662,38.330
-0.091,-0.074,0.602,-25.085,227.173,-8.911
0.100,-0.022,0.215,-153.076,133.850,-15.747
0.292,-0.185,0.074,-24.902,49.988,-17.639
0.365,-0.081,0.688,26.917,-48.035,-3.967
0.392,-0.081,1.546,127.563,-100.952,11.719
-0.072,0.146,2.191,86.731,-72.693,12.329
0.062,-0.184,0.944,11.230,92.468,-2.625
0.063,-0.066,0.325,-84.534,104.553,-10.254
0.069,-0.074,0.405,37.170,-4.395,1.282
0.233,-0.012,2.085,122.498,-138.184,15.930
-0.110,0.072,1.446,75.317,-36.133,26.550
0.021,-0.058,0.492,26.245,139.343,-0.305
0.135,-0.096,0.148,-131.653,119.812,-26.306
0.162,-0.198,-0.032,-73.364,95.642,-21.118
0.276,-0.244,-0.102,-113.220,61.218,-13.855
0.273,-0.278,-0.150,-129.944,37.842,-10.620
0.219,-0.127,0.281,-51.331,-59.143,7.019
0.379,-0.294,2.168,226.807,-324.402,37.231
-0.253,0.234,3.803,80.444,-270.874,55.908
-0.274,-0.072,0.837,28.992,91.003,25.330
-0.022,0.001,0.381,-129.150,262.817,-20.508
0.174,-0.194,-0.037,-93.567,63.721,-14.709
0.455,-0.094,0.535,2.686,-5.737,-7.324
0.278,0.039,1.028,68.970,-76.233,8.362
0.099,-0.008,1.355,116.943,-94.727,20.386
-0.066,-0.048,1.439,46.387,-37.720,9.155
0.123,-0.125,1.093,-6.165,23.926,0.305
0.187,0.086,1.309,1.648,18.066,3.967
0.049,0.026,1.281,29.358,37.659,3.174
0.169,-0.094,0.829,-28.503,56.763,-5.371
0.062,-0.015,0.836,26.978,10.803,3.601
-0.348,0.136,1.668,31.067,36.804,36.194
-0.093,-0.111,0.411,-54.016,268.250,-19.165
0.164,-0.075,0.159,-164.917,141.724,-17.517
0.281,-0.223,-0.017,8.911,14.160,-11.902
0.340,-0.126,0.519,5.432,-29.602,1.404
0.224,0.116,1.132,84.045,-93.933,17.395
0.044,-0.049,1.416,110.107,-83.984,18.738
-0.042,-0.047,1.447,31.311,-32.776,6.836
0.188,-0.047,1.175,-3.357,15.625,0.061
0.155,0.064,1.256,6.958,12.634,2.197
0.072,0.089,1.337,17.151,32.593,0.549
0.071,-0.156,0.846,-4.639,42.847,-8.423
0.135,-0.100,0.745,-15.198,45.349,-7.080
0.156,-0.069,0.616,20.630,4.395,2.380
0.205,-0.176,0.630,39.124,-10.803,0.916
0.137,-0.167,0.467,-35.156,30.457,-1.221
0.115,-0.149,0.143,-95.703,51.270,-0.183
0.034,-0.070,0.351,-103.271,36.133,-0.122
0.349,0.092,1.348,53.894,-104.614,12.695
0.038,0.086,2.665,145.569,-232.544,29.297
-0.194,0.088,1.658,12.268,-42.297,25.513
-0.043,-0.128,0.717,-13.794,146.973,-5.127
0.129,-0.066,0.403,-101.379,102.905,-10.498
0.263,-0.085,0.421,-32.043,46.936,-6.653
0.251,0.039,0.885,28.198,-34.973,3.174
0.132,0.030,1.150,66.772,-53.284,6.897
0.120,-0.081,1.304,56.335,-38.391,3.174
0.071,-0.017,1.497,28.931,-18.066,2.869
0.079,0.092,1.347,3.479,46.692,0.854
0.060,-0.126,0.842,-19.592,57.922,-8.667
0.089,-0.088,0.620,-18.982,47.241,-6.042
0.145,-0.037,0.620,40.100,-17.944,6.653
0.233,-0.143,0.905,103.577,-55.237,7.263
0.114,-0.180,0.721,12.451,14.893,1.526
0.115,-0.158,0.302,-97.961,67.444,-1.221
0.138,-0.144,0.035,-156.921,91.248,-5.798
0.277,0.060,0.840,-95.642,20.569,-1.953
0.427,-0.249,1.622,169.250,-211.731,17.822
-0.096,0.135,2.440,83.374,-223.572,39.246
-0.173,0.058,1.629,0.549,54.443,13.428
-0.007,-0.077,0.661,-34.424,164.062,-11.658
0.153,-0.100,0.270,-99.304,93.933,-9.949
0.270,-0.098,0.386,-16.602,29.297,-6.104
0.307,0.064,1.097,53.528,-53.955,3.845
0.177,0.054,1.863,118.713,-80.017,11.536
-0.086,0.079,1.566,29.053,-9.155,5.554
0.086,-0.060,0.362,-37.842,52.368,-6.958
0.169,-0.118,1.250,92.712,-82.092,6.409
0.105,-0.085,2.056,73.181,-107.544,15.503
-0.005,-0.159,0.570,56.824,107.056,12.512
0.057,0.017,0.288,-114.380,145.752,-4.211
0.181,-0.207,-0.065,-86.731,88.806,-21.179
0.286,-0.264,-0.090,-109.436,59.509,-17.456
0.272,-0.255,-0.063,-108.948,24.231,-5.493
0.461,0.286,1.469,-49.561,-51.758,17.212
0.239,-0.095,2.535,252.563,-305.298,33.997
-0.252,0.214,2.934,52.185,-243.103,55.542
-0.216,-0.026,1.179,6.470,92.346,10.437
0.017,-0.083,0.456,-87.952,228.821,-22.522
0.226,-0.130,0.179,-112.610,88.989,-12.756
0.356,-0.090,0.508,15.015,-1.526,-4.089
0.262,0.023,0.956,52.124,-59.082,8.423
0.100,0.065,1.196,78.979,-63.904,13.306
0.007,-0.133,1.183,60.608,-35.889,3.784
0.122,-0.113,1.332,10.925,-5.188,-1.953
0.111,0.068,1.254,15.076,-1.160,7.996
0.030,0.016,1.135,7.263,39.917,0.610
0.094,-0.100,0.802,-27.405,51.208,-11.475
0.077,-0.046,1.251,31.677,-19.043,4.822
0.101,-0.009,1.929,69.336,-101.135,28.320
-0.031,-0.050,0.898,97.290,53.101,17.822
0.065,-0.012,0.310,-9.949,128.540,-1.221
0.257,-0.239,0.060,-128.967,140.442,-39.307
0.323,-0.275,-0.117,-123.901,120.605,-31.128
0.254,-0.252,-0.140,-122.131,64.636,-6.348
0.131,-0.176,-0.198,-80.750,-5.310,11.536
-0.043,-0.126,0.046,36.011,-135.010,31.494
0.439,0.101,3.682,195.435,-330.566,44.434
-0.306,0.320,3.196,72.693,-247.192,62.439
-0.224,-0.055,0.958,37.598,116.943,13.672
0.065,-0.004,0.590,-129.395,268.860,-32.715
0.220,-0.206,-0.068,-111.572,110.779,-23.926
0.319,-0.206,0.116,-0.854,-7.690,-7.935
0.342,-0.046,0.664,29.724,-45.410,3.906
0.140,0.102,1.163,93.262,-104.492,19.470
0.061,-0.031,1.924,100.586,-94.788,15.137
-0.069,0.100,1.685,31.616,-45.837,8.240
0.020,-0.073,1.122,2.869,81.787,-5.920
0.220,-0.186,0.750,-47.974,88.928,-21.545
0.113,-0.080,0.587,-16.418,41.626,-2.808
0.124,-0.006,0.852,93.628,-61.279,15.015
0.182,-0.120,1.079,108.398,-47.302,6.409
0.083,-0.181,0.629,-16.418,41.260,-3.479
0.048,-0.096,0.109,-164.856,116.516,-7.874
-0.005,-0.129,-0.060,-176.208,108.765,-11.841
0.454,0.022,0.867,-43.152,-38.391,1.343
0.333,-0.117,2.235,196.594,-257.263,18.494
-0.205,0.194,2.490,59.204,-205.688,52.307
-0.278,0.114,1.644,13.855,77.209,16.235
-0.064,-0.033,0.629,-36.316,179.810,-8.606
0.174,-0.101,0.222,-115.784,105.408,-14.221
0.372,-0.130,0.379,-14.771,29.297,-11.047
0.353,0.018,0.913,47.363,-53.528,3.601
0.112,0.015,1.028,79.712,-67.200,14.771
-0.013,-0.074,1.085,58.533,-39.185,7.507
0.073,-0.133,1.259,15.869,-8.789,-1.709
0.151,0.077,1.547,4.883,-17.090,6.409
0.052,0.050,1.238,13.916,26.123,1.648
0.060,-0.142,0.819,0.000,43.396,-9.338
0.103,-0.097,0.704,-21.179,34.241,-4.089
0.161,-0.025,0.811,44.556,-9.888,5.493
0.147,-0.136,0.901,92.224,-40.894,8.484
0.149,-0.174,0.684,-4.150,28.198,-2.136
0.186,-0.173,0.133,-120.300,84.351,-8.789
0.117,-0.167,0.018,-175.598,103.088,-15.991
0.359,-0.003,0.835,-55.908,-1.587,-3.357
0.397,-0.137,2.384,192.993,-255.859,17.273
-0.141,0.136,2.087,51.147,-175.354,48.218
-0.221,0.107,1.587,0.732,86.853,13.733
-0.180,0.299,3.349,68.176,-255.066,63.538
-0.358,0.135,1.570,32.349,48.096,31.189
-0.083,-0.062,0.543,-20.386,206.787,-3.601
0.179,-0.110,0.192,-129.578,113.403,-17.151
0.394,-0.143,0.378,-18.005,33.997,-13.123
0.362,-0.060,0.800,61.707,-62.378,4.150
0.126,-0.012,0.898,96.191,-79.590,18.982
0.107,0.142,1.765,55.115,-72.021,20.081
-0.090,0.010,0.989,79.956,-43.701,14.343
0.084,-0.112,0.759,-62.622,94.604,-13.062
0.114,-0.128,0.872,-60.486,76.965,-24.963
0.104,-0.018,1.572,38.696,-84.045,28.564
-0.163,0.060,1.789,61.584,-83.069,40.466
-0.161,-0.048,0.683,81.238,115.662,15.259
0.078,-0.036,0.298,-59.998,131.470,-11.719
0.215,-0.238,-0.048,-126.831,136.658,-32.532
0.321,-0.243,-0.103,-139.099,110.474,-17.822
0.460,-0.265,0.086,-88.257,28.992,-13.000
0.220,-0.276,0.065,62.622,-132.080,16.052
0.387,-0.175,2.250,158.813,-258.911,42.786
-0.026,0.235,3.262,50.415,-222.290,53.650
-0.250,0.063,1.366,41.016,64.636,27.405
-0.151,0.060,0.434,-34.851,203.247,8.423
0.116,-0.081,0.213,-128.174,100.830,-15.808
0.157,-0.027,0.416,20.630,7.568,-8.850
0.298,-0.135,0.762,106.201,-104.675,3.235
0.427,-0.208,1.635,78.308,-84.717,0.671
0.148,0.124,1.808,-4.211,-41.138,12.695
0.028,-0.161,0.547,75.806,44.067,10.681
0.108,-0.106,0.713,-112.915,97.473,-5.493
0.163,-0.082,0.703,-60.974,75.500,-7.996
-0.070,0.064,0.368,14.648,-14.526,25.330
0.069,-0.019,0.757,104.248,-105.042,26.123
0.401,-0.140,1.713,49.988,-80.505,-1.465
0.131,-0.119,1.358,-9.399,-6.653,0.366
0.112,-0.170,0.868,-24.353,77.637,0.671
0.115,-0.034,0.731,-78.064,73.181,5.920
0.206,0.016,0.751,-37.354,21.667,9.155
0.177,0.037,0.912,23.071,-14.648,4.700
0.110,0.083,1.017,37.720,-26.428,10.498
0.135,-0.038,0.993,39.185,-22.705,3.113
0.127,-0.156,0.999,41.016,-21.057,-1.221
0.068,-0.121,1.071,14.954,-19.470,3.296
0.096,-0.088,0.918,4.272,-1.038,2.808
0.153,-0.099,0.872,-1.953,12.939,-0.061
0.128,-0.007,0.962,-6.287,6.714,2.502
0.200,-0.064,1.449,-5.066,0.732,1.770
0.112,0.050,1.045,26.550,-10.803,9.583
0.049,-0.022,0.710,18.738,15.320,1.282
0.156,-0.181,0.829,-44.678,51.880,-16.724
-0.068,0.033,0.687,-15.930,23.254,1.465
-0.059,-0.051,1.180,78.369,-109.924,38.818
-0.051,-0.054,1.124,29.419,-59.998,12.695
0.287,-0.186,1.167,-15.015,53.406,-5.859
0.384,-0.332,0.891,-52.185,85.266,-29.541
0.366,-0.182,0.594,-88.806,66.956,-1.587
0.313,-0.103,0.539,-45.410,7.202,15.991
0.331,-0.047,0.984,45.227,-67.200,17.700
-0.012,0.050,1.552,76.782,-81.909,30.518
-0.233,0.191,1.294,25.879,0.000,42.847
-0.099,0.119,0.872,0.732,57.861,14.587
0.137,0.022,0.786,-17.212,26.978,-6.165
-0.001,0.015,0.735,13.184,-1.526,-6.042
0.014,0.009,1.053,47.729,-33.936,10.925
0.212,-0.117,1.044,7.141,-10.315,-8.057
0.364,-0.227,0.913,-4.150,22.888,-19.592
0.334,-0.079,1.437,-19.165,14.832,-12.329
0.123,-0.204,0.341,75.562,-16.663,11.169
0.118,-0.081,0.494,-84.656,57.495,-0.977
-0.022,-0.078,1.007,-37.476,48.828,-8.606
-0.333,0.249,1.431,56.091,-113.098,51.270
-0.357,0.084,1.520,120.544,-146.667,75.745
-0.022,-0.046,0.847,2.014,77.942,7.141
0.310,-0.224,0.605,-99.609,189.575,-40.894
0.551,-0.213,0.433,-164.673,146.423,-26.733
0.490,-0.237,0.342,-19.165,-18.066,-3.784
0.561,-0.045,0.967,28.503,-123.352,21.973
0.399,-0.044,1.705,91.431,-118.530,32.410
0.125,-0.010,1.491,43.823,-84.656,23.315
0.026,-0.011,1.091,19.287,58.289,9.766
0.003,-0.010,0.883,-8.728,84.351,-8.423
-0.009,-0.011,0.724,5.371,46.753,2.991
0.101,0.067,0.719,8.301,12.329,10.071
0.090,0.010,0.789,33.569,-23.010,-0.488
0.014,-0.033,1.045,44.678,-53.650,4.578
0.252,-0.048,1.851,-8.850,-32.349,0.000
0.216,-0.190,0.757,22.095,27.161,-18.921
0.205,-0.103,0.615,-29.907,69.641,-17.700
0.170,-0.093,0.713,-74.219,68.298,-15.381
0.158,-0.069,0.813,6.287,-6.653,-2.808
-0.164,0.035,0.816,77.515,-59.570,17.334
0.096,-0.053,1.575,78.491,-137.634,50.903
0.226,-0.210,1.503,-21.729,-5.737,-15.381
0.231,-0.291,0.761,-41.992,114.319,-27.588
0.232,-0.142,0.471,-103.455,106.140,-8.423
0.299,-0.118,0.547,-39.734,10.315,2.380
0.321,-0.014,1.000,34.424,-64.514,10.498
0.200,-0.017,1.453,79.224,-67.017,18.921
-0.045,0.050,1.135,24.536,-13.855,16.907
-0.143,0.059,0.871,20.996,29.053,12.756
0.061,0.026,0.815,-3.723,17.822,7.568
0.173,-0.021,0.881,4.272,1.160,-5.249
0.167,-0.086,1.015,18.555,-22.827,-3.723
0.123,-0.124,1.013,5.127,-16.541,-2.441
0.131,-0.135,0.901,-4.639,13.611,-5.249
0.146,-0.088,0.963,-2.075,8.606,-1.892
0.142,-0.072,1.007,1.160,0.488,1.831
0.138,-0.051,1.033,2.319,0.061,1.953
0.155,-0.081,1.139,2.930,-1.282,2.563
0.100,-0.045,0.872,25.391,-7.812,7.690
0.077,-0.000,0.650,15.381,9.094,5.249
0.070,-0.156,0.953,-14.465,13.855,-6.653
-0.227,0.119,0.883,5.005,-14.465,20.081
0.025,-0.031,1.412,34.912,-73.853,29.724
0.369,-0.186,1.225,-7.690,13.184,-18.799
0.423,-0.357,0.783,-26.062,84.229,-32.043
0.297,-0.223,0.562,-82.764,81.909,-9.766
0.326,-0.108,0.535,-53.894,27.405,11.719
0.382,-0.036,0.974,10.071,-43.335,10.132
0.037,-0.186,1.176,264.282,-133.484,62.988
0.428,-0.497,0.690,-6.409,83.984,-44.678
0.559,-0.456,0.760,-247.498,265.564,-77.332
0.476,-0.364,0.229,-166.870,199.829,-52.246
0.549,-0.271,0.048,-115.051,89.539,25.635
0.494,-0.208,0.017,32.959,-50.903,50.293
0.406,0.083,1.073,80.750,-211.548,52.307
0.114,0.137,2.084,105.896,-230.042,66.284
-0.192,0.261,2.001,34.912,-120.300,84.412
-0.138,0.217,1.534,4.761,121.704,15.015
-0.105,0.052,0.776,-23.376,182.434,-30.029
-0.130,0.111,0.394,-52.063,66.895,-4.456
-0.076,0.171,0.514,18.921,23.804,12.573
-0.131,0.138,0.832,63.416,-46.875,-5.371
0.168,0.143,1.945,65.613,-87.646,2.014
-0.044,-0.011,0.780,69.153,-36.560,-23.193
0.116,-0.136,0.446,11.353,17.456,-11.536
0.383,-0.214,1.617,-63.477,-8.118,-25.879
0.494,-0.204,1.949,-16.541,-75.867,-7.324
0.312,-0.398,1.350,69.702,-28.259,-10.315
0.237,-0.281,0.473,-35.034,135.864,-8.667
0.135,-0.144,0.243,-49.255,138.916,0.977
0.238,-0.217,0.050,-145.813,127.625,-8.484
0.383,-0.123,0.207,-127.563,78.369,-5.493
0.312,-0.086,0.394,57.678,-107.849,24.109
0.325,-0.131,1.448,143.921,-250.549,36.194
-0.098,0.168,2.123,61.951,-204.590,49.805
-0.146,0.230,1.815,9.155,-9.277,37.842
0.025,-0.108,0.781,-6.836,198.792,-28.564
-0.100,0.053,0.427,-85.144,135.315,-29.480
-0.058,0.067,0.329,-17.883,54.504,3.174
-0.006,0.089,0.689,39.124,-20.935,2.014
-0.010,0.015,1.264,103.577,-86.426,5.371
0.036,-0.055,1.385,42.297,-74.585,4.089
0.420,-0.151,1.396,-17.639,39.795,-30.029
0.370,-0.353,0.603,6.958,56.091,-41.992
0.305,-0.233,0.575,-62.805,58.289,-16.479
0.189,-0.092,0.768,-39.246,36.499,0.122
0.103,-0.059,0.894,22.644,-16.602,7.202
0.081,0.090,0.977,54.199,-44.006,16.602
0.028,-0.150,1.115,54.626,-37.964,5.737
0.105,-0.188,1.153,-2.808,5.493,-7.874
0.210,-0.191,0.883,-19.104,22.522,-2.502
0.226,-0.042,0.853,-32.532,13.916,5.859
0.228,-0.037,0.889,-7.629,3.845,5.981
0.126,-0.033,0.960,15.869,-13.794,2.930
0.022,0.010,1.006,29.053,-15.259,9.583
0.121,-0.093,1.067,13.977,-7.141,4.456
0.144,-0.051,0.944,4.517,2.563,2.136
0.147,-0.103,0.922,7.446,1.831,1.221
0.141,-0.060,0.958,3.845,0.244,1.709
0.138,-0.079,0.929,2.136,1.282,2.014
0.136,-0.069,0.936,2.014,1.465,1.953
0.164,-0.109,1.018,-0.366,0.061,2.258
0.152,0.028,1.230,10.742,-19.958,8.789
-0.177,0.035,0.745,33.264,13.306,10.132
-0.195,0.026,0.460,9.338,-3.662,27.405
-0.313,0.063,1.287,-6.958,-55.359,12.085
0.180,-0.179,1.242,50.354,-82.458,31.067
0.453,-0.318,1.372,11.047,-8.667,-26.123
0.642,-0.384,0.760,-67.078,116.638,-29.602
0.400,-0.276,0.591,-57.983,104.370,-9.460
0.295,-0.175,0.443,-87.646,85.754,16.235
0.287,-0.057,0.495,-49.988,8.850,23.071
0.362,0.041,0.971,29.724,-80.627,26.245
0.307,-0.024,1.338,103.760,-96.069,25.085
-0.021,0.067,1.301,28.809,-55.298,17.700
-0.170,0.163,1.266,14.160,4.761,29.297
-0.330,0.132,0.918,26.001,38.330,11.902
-0.070,0.069,0.797,1.892,34.363,-0.244
0.055,0.052,0.859,2.014,7.935,-8.911
-0.049,0.006,1.058,18.616,-14.465,-6.836
-0.073,-0.011,1.157,23.682,-24.902,4.150
-0.339,0.060,0.425,52.734,10.071,0.183
-0.069,-0.083,0.537,30.823,-16.541,-1.160
0.316,-0.352,1.548,33.020,-103.577,-32.471
0.651,-0.696,2.081,7.019,-94.238,-27.161
0.348,-0.360,1.837,-88.135,81.177,-17.517
0.291,-0.374,0.231,-16.968,227.539,5.493
0.220,-0.163,0.123,-113.770,201.294,9.460
0.243,-0.215,-0.101,-130.615,141.541,4.395
0.226,-0.175,-0.156,-72.693,49.011,23.315
0.398,-0.039,0.134,-27.161,-23.254,37.659
0.380,0.012,0.583,109.497,-213.135,41.748
0.112,0.275,2.941,170.593,-348.755,69.763
-0.341,0.364,2.601,60.608,-175.781,84.045
-0.110,0.094,1.105,0.427,163.147,11.230
-0.090,-0.011,0.577,-61.035,212.891,-38.269
0.017,0.064,0.248,-75.623,78.247,-13.062
0.079,0.035,0.389,1.953,21.851,-6.470
0.041,0.089,0.765,59.753,-45.349,-4.639
0.111,-0.093,1.223,113.708,-99.915,-0.854
0.229,-0.214,1.461,19.714,-65.247,-18.188
0.273,-0.103,1.381,-12.024,26.306,-28.625
0.106,-0.068,0.670,24.719,53.284,-14.465
-0.086,-0.021,0.309,-64.819,54.260,0.000
-0.315,-0.062,0.642,41.443,-19.226,9.888
-0.228,0.164,1.617,37.537,-116.211,38.940
0.415,-0.321,1.550,46.265,-101.257,16.052
0.486,-0.334,1.252,-49.622,81.177,-60.547
0.482,-0.425,0.650,-44.006,148.743,-46.082
0.368,-0.219,0.507,-114.990,112.793,-7.080
0.282,-0.161,0.288,-51.819,35.583,21.179
0.369,-0.004,0.708,-11.353,-58.167,31.677
0.366,0.027,1.157,93.506,-108.643,29.968
0.279,-0.005,1.393,85.999,-83.191,22.583
-0.059,0.129,1.388,5.371,-25.085,19.714
-0.174,0.158,1.049,23.560,29.785,30.884
-0.215,0.098,0.941,18.555,38.208,-2.380
-0.052,0.057,0.833,1.099,31.555,-2.625
0.027,0.022,0.819,0.854,7.446,-4.150
0.004,0.009,1.005,22.217,-11.597,-6.104
0.205,-0.033,1.327,4.089,-21.484,-7.629
0.191,-0.207,0.781,30.579,10.437,-22.156
0.280,-0.186,0.713,-19.592,39.490,-10.925
0.298,-0.221,0.907,-18.799,21.118,-17.090
0.144,-0.106,0.897,-8.240,6.165,-2.991
0.128,0.036,0.886,32.349,-28.748,20.874
0.073,-0.160,1.145,23.804,-17.639,0.977
0.216,-0.269,2.096,-50.232,54.932,-9.094
0.339,-0.285,0.501,-35.522,217.773,-25.635
0.266,-0.199,0.118,-44.006,189.331,-12.695
0.245,-0.212,-0.111,-133.789,161.316,-7.690
0.268,-0.190,-0.097,-96.375,87.280,4.822
0.307,-0.165,-0.104,-46.448,2.197,14.771
0.444,-0.200,0.072,30.823,-94.604,29.480
0.296,0.233,1.417,115.479,-283.447,39.307
-0.054,0.272,3.605,172.852,-340.942,77.637
-0.297,0.255,2.060,26.733,-74.890,50.293
-0.042,0.112,1.135,-2.747,194.946,-1.953
-0.055,0.007,0.620,-76.660,174.194,-42.786
0.001,-0.005,0.237,-47.668,66.711,-10.010
-0.002,0.085,0.462,13.428,21.667,-1.465
0.141,0.064,0.812,68.054,-52.979,3.113
0.244,-0.111,1.770,89.722,-93.628,-10.559
0.080,-0.125,1.378,25.452,-48.828,-7.446
0.045,-0.071,0.719,16.174,54.382,-9.583
-0.138,0.003,0.335,-25.635,34.363,-0.671
-0.035,-0.024,0.984,38.635,-55.847,15.869
0.148,-0.109,1.877,-10.742,-116.760,8.972
0.327,-0.242,2.155,-41.260,12.817,-21.545
0.376,-0.357,0.361,-9.644,168.518,-30.457
0.329,-0.233,0.236,-82.336,127.319,-10.254
0.232,-0.167,0.260,-113.770,114.258,-6.897
0.419,-0.142,0.257,-42.786,28.870,13.794
0.432,-0.093,0.426,39.856,-85.876,21.545
0.371,0.095,1.259,69.031,-179.260,29.724
-0.063,0.090,1.691,135.681,-184.265,33.875
-0.245,0.206,1.966,20.935,-104.126,38.696
-0.056,0.129,1.635,-11.536,98.877,-6.165
-0.100,-0.015,0.713,-30.823,155.701,-40.833
0.065,-0.034,0.527,-35.583,61.035,-9.094
0.125,-0.028,0.636,25.452,29.907,-8.301
0.190,-0.029,0.745,24.963,-17.639,-3.479
0.162,-0.129,1.068,62.256,-44.678,-5.981
0.061,-0.095,1.244,18.860,-35.889,1.648
0.209,0.006,1.348,-5.066,7.141,-5.981
0.037,-0.136,0.873,35.461,13.550,-11.230
-0.296,0.127,0.478,-8.240,25.879,16.113
-0.135,-0.003,0.973,72.937,-75.806,34.241
0.037,-0.130,1.822,-9.460,-100.769,-6.775
0.430,-0.182,2.256,-62.866,26.855,-14.587
0.415,-0.341,0.432,-43.579,171.936,-37.720
0.359,-0.276,0.221,-65.369,122.742,-12.451
0.293,-0.186,0.267,-118.530,123.596,-9.705
0.409,-0.185,0.202,-38.208,24.292,17.517
0.410,-0.100,0.384,29.419,-84.229,28.381
0.384,0.105,1.251,66.895,-181.396,37.231
0.135,0.053,1.791,124.756,-195.374,36.255
-0.227,0.215,1.916,11.658,-111.206,38.391
-0.174,0.196,1.594,1.526,97.107,18.311
-0.141,0.014,0.667,-22.156,160.522,-32.654
0.048,0.019,0.603,-39.307,63.721,-14.893
0.179,-0.073,0.604,36.865,34.058,-7.568
0.113,0.000,0.722,18.799,-7.446,-4.883
0.131,-0.112,0.975,61.584,-40.100,-3.967
0.154,-0.104,1.179,21.362,-41.443,-3.540
0.282,-0.003,1.463,-3.967,-6.836,-10.986
0.045,-0.089,0.864,38.269,22.095,-12.085
-0.255,0.091,0.390,-10.437,26.367,13.000
0.015,-0.035,1.333,33.020,-66.162,19.958
0.162,-0.109,1.866,-30.457,-88.989,-5.005
0.235,-0.133,1.913,-13.672,16.113,-5.920
0.343,-0.311,0.356,-23.743,155.518,-18.494
0.334,-0.236,0.406,-75.684,104.431,-12.207
0.319,-0.121,0.471,-82.397,83.374,-3.113
0.447,-0.129,0.363,-28.931,15.259,15.747
0.360,-0.047,0.536,12.512,-69.946,20.386
0.351,0.040,1.123,55.237,-151.367,24.658
-0.005,0.033,1.586,111.511,-156.372,25.269
-0.188,0.182,1.796,14.404,-76.172,33.997
-0.125,0.028,1.234,-5.920,95.520,-4.089
-0.204,0.002,0.723,-23.254,111.328,-30.945
0.102,-0.016,0.707,-1.526,47.607,-5.615
0.132,-0.048,0.732,26.306,25.269,-5.127
0.141,-0.018,0.775,17.395,-8.057,-0.671
0.086,-0.077,1.089,42.603,-25.940,-3.418
0.207,0.013,1.407,10.559,-29.419,1.770
-0.056,-0.046,0.835,39.978,0.000,-6.226
-0.353,0.154,0.602,33.447,-11.230,26.245
0.107,-0.166,1.312,42.603,-74.585,17.090
0.211,-0.214,1.871,-45.288,-55.176,-14.771
0.462,-0.169,2.232,-94.177,70.129,-15.198
0.353,-0.332,0.250,2.686,170.593,-24.780
0.293,-0.246,0.139,-92.468,139.771,-8.850
0.215,-0.179,0.040,-130.066,138.062,-9.460
0.403,-0.179,0.028,-47.363,24.170,18.433
0.486,-0.126,0.401,53.345,-107.971,25.330
0.445,0.176,1.447,93.079,-224.304,35.400
-0.106,0.145,1.937,124.634,-244.019,52.979
-0.389,0.294,2.137,14.771,-98.694,58.289
-0.089,0.084,1.384,-6.409,151.062,-5.798
-0.149,0.007,0.600,-46.997,173.401,-45.532
0.054,-0.003,0.466,-38.879,61.584,-9.644
0.155,-0.063,0.568,44.128,22.095,-6.348
0.190,-0.005,0.752,36.072,-19.043,-2.686
0.288,-0.068,1.393,68.848,-62.256,-7.080
-0.199,-0.043,1.038,47.974,-48.828,2.380
-0.329,0.071,0.704,38.818,-23.437,30.273
0.025,-0.091,1.482,-22.034,-7.568,-7.202
0.329,-0.195,1.375,-50.598,17.090,-18.860
0.385,-0.312,1.155,-17.456,53.040,-26.001
0.375,-0.293,0.633,-1.953,77.332,-8.911
0.356,-0.194,0.722,-65.125,66.040,1.465
0.323,-0.132,0.517,-62.134,48.157,5.981
0.299,-0.091,0.392,-12.085,-21.545,22.461
0.353,0.068,0.978,-11.597,-86.426,25.208
0.251,-0.050,1.129,108.398,-124.390,25.146
0.015,0.105,1.708,57.556,-91.553,26.001
-0.136,0.087,1.374,-1.831,30.823,6.836
-0.316,0.071,0.836,0.427,79.285,-10.986
0.002,0.001,0.741,11.414,46.875,-3.967
0.151,-0.060,0.729,10.193,28.442,-9.705
0.101,-0.019,0.835,10.437,-0.793,-7.690
0.157,-0.138,1.158,36.377,-26.978,-3.174
-0.185,0.030,0.935,18.250,-2.686,5.310
-0.175,0.042,0.629,27.649,-17.761,20.630
0.056,-0.162,1.279,33.875,-67.078,-3.296
-0.275,0.228,1.851,-6.287,42.847,14.893
-0.224,-0.031,0.684,-15.198,178.345,-40.222
0.012,-0.010,0.541,-50.598,74.890,-19.958
0.147,-0.059,0.646,34.668,30.090,-10.681
0.139,-0.113,0.759,43.762,-0.061,-11.169
0.076,-0.094,0.993,43.701,-22.949,-0.427
0.159,-0.110,1.253,18.311,-29.907,-0.427
0.015,-0.084,0.864,10.864,20.569,-5.493
0.005,-0.066,0.638,17.883,4.761,5.981
0.155,-0.180,1.137,-5.493,-22.583,-5.005
0.237,-0.198,1.285,-21.301,0.732,-4.272
0.378,-0.172,0.974,-18.433,30.518,-5.554
0.260,-0.119,0.718,4.700,34.424,-3.296
0.154,-0.136,0.765,0.244,22.888,5.127
0.339,-0.133,0.800,-34.546,33.081,-2.136
0.313,-0.160,0.591,-41.138,0.549,-3.174
0.310,-0.036,0.873,-34.180,-40.771,10.742
0.311,-0.007,0.984,29.846,-70.129,19.714
0.112,-0.015,1.454,65.735,-73.181,15.137
-0.162,0.079,1.136,7.690,-0.732,13.000
-0.286,0.062,0.936,13.672,22.339,-2.075
-0.011,-0.008,1.091,23.682,14.099,0.549
0.143,-0.036,0.931,22.339,31.433,-2.258
0.159,-0.109,0.782,14.160,29.724,-6.592
0.181,-0.104,0.788,-5.981,11.536,-6.287
0.141,-0.132,0.964,2.869,-3.845,-3.723
0.210,-0.040,1.108,1.526,-12.024,2.991
-0.004,-0.057,0.999,20.020,8.118,3.479
-0.359,0.210,0.709,24.292,-4.456,34.363
-0.002,-0.084,1.349,42.053,-84.961,30.884
0.404,-0.176,1.808,-85.999,-14.648,-18.738
0.418,-0.154,1.436,-46.631,90.759,-32.776
0.392,-0.276,0.319,11.902,111.450,-5.981
0.289,-0.182,0.580,-85.815,87.524,-6.836
0.367,-0.101,0.450,-37.048,50.354,11.414
0.458,-0.161,0.431,0.977,-33.630,14.526
0.359,-0.003,0.771,-4.456,-97.473,27.954
0.319,-0.099,1.033,85.876,-159.851,31.860
-0.124,0.137,1.710,65.857,-142.334,35.034
-0.359,0.252,1.769,-1.831,1.892,24.780
-0.309,0.030,0.743,0.916,117.676,-17.456
0.057,0.005,0.737,-6.470,53.528,-13.672
0.133,-0.035,0.845,38.879,27.405,-7.263
0.162,-0.090,0.945,35.278,16.541,-9.216
0.117,-0.076,0.855,14.648,7.629,-9.583
0.017,-0.100,0.956,7.263,-4.333,-2.319
-0.315,0.131,0.725,14.587,2.441,20.691
0.059,-0.167,0.814,44.861,-50.049,19.836
0.338,-0.236,1.879,-72.998,-10.071,-30.640
0.582,-0.249,1.719,-73.486,45.959,-13.550
0.374,-0.206,0.754,22.949,85.938,-7.629
0.306,-0.247,0.311,-12.085,99.976,1.892
0.267,-0.183,0.218,-134.766,111.328,-10.742
0.213,-0.143,0.086,-40.771,37.537,10.986
0.415,-0.074,0.320,16.113,-81.848,27.039
0.352,0.159,1.159,52.307,-187.622,34.363
-0.153,0.162,2.010,137.634,-235.107,41.809
-0.347,0.264,2.198,19.714,-102.295,44.678
-0.222,0.012,0.982,-7.996,145.203,-17.639
0.073,0.033,0.499,-38.879,128.784,-27.466
0.069,-0.036,0.534,8.362,41.870,-10.437
0.158,-0.034,0.819,49.805,8.911,-10.681
0.149,-0.137,0.888,55.237,-7.202,-13.367
0.182,-0.164,1.145,11.719,-26.306,-3.296
0.046,-0.136,0.986,-3.479,-0.854,-5.188
0.130,-0.112,0.784,0.183,20.386,0.305
0.338,-0.084,1.186,0.854,-9.338,-7.019
0.139,-0.190,0.971,19.897,8.301,-7.080
-0.270,0.104,0.629,-6.104,35.339,23.987
-0.034,-0.004,1.042,54.504,-67.261,56.274
0.094,-0.169,1.941,-52.124,-72.754,-2.869
0.367,-0.217,2.172,-68.054,13.794,-4.272
0.286,-0.038,1.365,2.869,113.647,-2.563
0.205,-0.208,0.248,56.152,172.424,2.258
0.229,-0.167,0.121,-124.146,170.654,-16.235
0.272,-0.171,-0.052,-93.262,114.197,-6.042
0.276,-0.188,-0.077,-56.702,36.438,6.287
0.354,-0.161,-0.010,-23.254,-29.114,15.686
0.433,-0.202,0.070,46.570,-131.287,27.100
0.296,0.370,1.781,73.303,-273.132,41.382
-0.180,0.288,3.699,173.706,-343.628,67.810
-0.376,0.267,1.941,16.785,-32.898,32.654
-0.095,-0.075,0.638,-7.812,246.704,-19.897
0.062,0.056,0.401,-100.037,123.901,-40.894
0.096,-0.052,0.265,-8.667,54.138,-15.747
0.195,-0.104,0.468,42.786,-4.028,-12.512
0.198,-0.105,0.976,86.121,-62.500,-5.066
0.191,-0.164,1.781,38.513,-77.454,-4.150
-0.066,-0.135,1.165,15.686,-7.568,-5.859
-0.434,0.068,0.325,17.334,73.364,17.761
-0.154,-0.098,0.187,51.758,-27.527,28.198
0.217,-0.310,1.906,-28.259,-101.685,-20.386
0.566,-0.204,2.851,-140.869,-15.747,-20.569
0.326,-0.071,1.586,18.005,127.625,-6.165
0.230,-0.239,0.195,76.904,202.942,8.057
0.213,-0.187,0.024,-147.034,207.581,-20.508
0.237,-0.155,-0.145,-94.177,146.973,-7.385
0.285,-0.195,-0.111,-39.001,34.119,6.409
0.192,-0.114,-0.140,-35.217,-6.409,14.954
0.372,-0.094,0.066,-9.521,-55.969,31.067
-0.068,0.055,0.468,111.816,-269.775,28.687
0.487,0.082,2.946,193.359,-315.674,58.411
-0.254,0.222,3.092,10.681,-227.356,15.137
-0.274,0.251,1.922,20.813,80.017,23.437
-0.127,-0.003,0.644,-12.573,225.403,-28.992
0.079,-0.015,0.204,-99.854,90.759,-21.667
0.130,-0.082,0.167,1.404,51.453,-20.752
0.110,-0.033,0.549,49.011,-33.447,-8.118
0.317,-0.248,1.474,93.262,-96.497,-8.972
0.182,-0.158,1.655,15.137,-71.228,-13.306
0.002,-0.125,0.914,22.522,46.875,-1.282
-0.203,0.096,0.450,-22.522,63.538,16.663
0.142,-0.053,1.104,13.123,-21.179,8.484
0.358,-0.196,1.626,-20.813,-50.842,-14.526
0.225,-0.179,1.270,-6.836,27.588,-7.019
0.248,-0.221,0.508,-0.732,83.008,-3.723
0.250,-0.093,0.657,-56.641,49.744,1.160
0.330,-0.114,0.498,-39.673,31.799,0.000
0.358,-0.122,0.503,-16.235,-29.968,3.723
0.469,-0.170,3.318,-150.635,-36.804,-10.864
0.102,-0.213,2.222,-18.677,153.870,2.258
0.159,-0.113,0.642,44.678,302.002,8.850
0.178,-0.116,0.088,-33.508,298.645,-17.456
0.133,-0.111,-0.194,-142.639,245.361,-15.503
0.191,-0.047,-0.193,-40.894,158.875,7.996
0.258,-0.137,-0.221,-2.075,59.326,1.709
-0.016,-0.067,-0.216,-5.371,12.451,5.737
-0.080,-0.004,-0.192,17.761,-18.005,30.823
0.169,-0.137,-0.099,-30.701,-53.955,7.629
0.367,-0.289,-0.325,-59.509,-83.984,1.221
0.389,-0.248,-0.068,-82.031,-114.868,15.625
0.588,0.426,1.896,65.979,-264.526,51.453
0.024,0.251,4.000,278.259,-461.426,57.678
-0.462,0.256,2.896,22.339,-186.035,56.763
-0.072,-0.120,0.336,-16.602,294.067,-16.113
0.235,0.056,0.331,-167.236,154.541,-15.686
0.312,-0.200,0.139,18.982,17.639,-38.452
0.189,-0.213,0.087,-20.874,-8.667,-10.193
0.265,0.021,0.888,22.827,-44.556,2.014
0.375,-0.066,1.338,129.089,-109.985,8.179
-0.263,0.031,1.660,81.055,-73.059,17.883
-0.160,-0.036,1.105,22.705,-35.950,37.964
0.065,-0.072,1.426,-38.269,16.541,-8.850
0.257,-0.160,1.338,-18.677,48.340,-15.747
0.322,-0.197,0.718,12.268,63.843,-17.578
0.343,-0.263,0.509,-9.705,71.289,-13.245
0.280,-0.142,0.434,-112.061,89.539,-5.737
0.288,-0.160,0.156,-82.458,63.477,-2.441
0.501,-0.119,0.353,-15.320,-42.969,11.902
0.273,0.083,0.947,50.354,-163.513,27.466
0.052,0.078,1.784,141.113,-212.402,40.405
-0.283,0.168,2.039,49.988,-115.417,33.020
-0.144,-0.019,1.146,-6.897,103.394,-11.719
0.064,0.025,0.619,-49.011,115.479,-29.602
0.073,-0.055,0.608,-10.315,37.354,-11.475
0.156,-0.064,0.863,48.218,8.423,-10.254
0.178,-0.149,0.865,53.894,1.587,-8.545
0.153,-0.112,0.919,17.151,-6.775,-5.859
0.127,-0.144,0.979,9.521,-5.676,-4.639
0.148,-0.090,0.966,-0.610,0.549,0.244
0.270,-0.151,0.914,1.160,4.089,-3.845
0.178,-0.162,0.910,2.869,-1.282,-3.540
0.164,-0.088,0.951,-2.380,-8.606,1.587
0.132,-0.093,0.976,-5.737,-10.498,0.854
0.163,0.036,1.252,-2.747,-16.357,4.089
-0.102,-0.017,1.059,26.672,12.512,7.507
-0.374,0.153,0.545,28.687,51.575,29.907
0.131,-0.106,1.142,0.305,-20.081,27.283
0.371,-0.218,1.191,-36.438,-14.282,-25.879
0.384,-0.236,1.017,-16.785,48.889,-22.339
0.393,-0.197,0.687,-7.568,44.495,-4.517
0.330,-0.146,0.655,-24.414,28.870,3.601
0.326,-0.181,0.593,-22.095,5.798,8.057
0.298,-0.111,0.702,-28.503,-25.024,7.751
0.352,0.029,1.044,-10.803,-66.956,21.423
0.302,-0.074,1.131,66.040,-88.013,22.278
-0.065,0.080,1.423,25.452,-50.720,14.343
-0.262,0.110,0.877,14.526,26.245,19.043
-0.235,0.024,0.982,14.648,16.663,-6.897
0.074,-0.068,1.176,22.400,8.057,-5.371
0.105,-0.029,0.974,19.348,33.020,-2.502
0.030,-0.049,0.810,11.963,34.058,-4.150
0.060,-0.032,0.758,-10.254,19.104,-1.953
0.148,-0.109,0.932,8.484,1.221,-6.348
0.257,-0.115,1.124,1.953,-7.141,-0.854
0.324,-0.212,1.008,6.287,1.709,-9.033
0.185,-0.173,0.877,-1.160,26.917,-5.005
0.161,-0.071,0.869,-15.869,15.076,4.395
0.124,-0.029,0.932,-2.869,6.775,5.066
0.103,-0.032,1.037,17.883,-6.287,11.047
0.124,-0.064,0.971,15.259,-13.245,11.536
0.251,-0.169,0.884,0.916,8.423,-3.357
0.211,-0.068,0.892,-9.888,18.677,-3.052
0.200,-0.081,0.801,-5.920,0.244,5.005
0.124,-0.090,0.799,-5.310,-15.503,1.831
0.138,-0.024,1.004,-4.150,-28.320,-0.488
0.109,-0.169,1.263,4.272,-31.311,-0.854
0.104,-0.040,1.074,-1.221,-13.855,3.296
0.115,-0.042,0.917,4.517,7.568,3.296
0.137,-0.050,0.970,9.705,8.972,2.136
0.138,-0.094,0.979,15.015,12.695,0.610
0.152,-0.103,0.951,9.216,18.433,1.892
0.147,-0.072,0.910,5.249,18.127,4.333
0.167,-0.059,0.878,5.005,12.817,4.883
0.183,-0.062,0.870,4.822,6.287,3.235
0.176,-0.062,0.897,4.883,-1.038,1.892
0.151,-0.125,1.001,3.906,-7.874,1.587
-0.006,-0.057,1.198,12.390,-23.193,7.385
-0.188,0.087,0.814,16.357,34.973,11.108
-0.066,-0.118,0.398,87.341,-55.542,33.875
0.011,-0.222,1.918,21.545,-111.328,1.709
0.282,-0.342,2.522,-82.703,-27.039,5.127
0.302,-0.014,1.943,-72.693,136.536,-4.028
0.241,-0.263,0.091,65.002,225.342,10.437
0.249,-0.030,0.305,-167.908,229.126,-12.329
0.279,-0.179,-0.174,-68.848,137.817,-8.301
0.320,-0.225,-0.151,-57.739,41.321,8.118
0.196,-0.072,-0.071,-52.124,22.949,20.874
0.383,-0.101,0.049,15.625,-57.983,34.668
-0.007,0.065,0.502,115.906,-270.874,31.616
0.247,0.143,1.649,179.260,-279.175,53.711
-0.094,0.290,3.616,11.902,-234.741,16.357
-0.279,0.237,2.118,19.836,-26.794,25.513
-0.112,-0.073,0.725,9.277,217.346,-16.357
0.104,0.069,0.367,-110.840,133.362,-25.879
0.102,-0.030,0.262,-6.592,68.237,-23.865
0.097,-0.025,0.523,38.391,-5.432,-18.311
0.394,-0.260,1.014,95.093,-83.923,-14.099
0.109,-0.212,1.648,37.781,-76.965,-19.104
0.005,-0.101,0.631,-10.254,26.062,5.432
0.182,-0.123,1.359,-47.668,24.231,5.249
0.303,-0.107,1.841,-27.832,-42.053,5.615
0.125,-0.060,2.030,2.258,1.892,4.272
0.235,-0.056,0.918,39.307,110.596,2.197
0.283,-0.199,0.274,-37.598,170.410,-23.499
0.224,-0.187,-0.010,-169.434,167.358,-27.222
0.231,-0.095,-0.041,-38.879,52.612,6.531
0.351,-0.153,-0.019,-24.292,-12.451,4.333
-0.214,0.145,2.476,4.578,-107.971,12.695
-0.253,-0.021,0.899,17.883,162.231,-8.179
0.043,0.038,0.484,-44.312,124.390,-13.245
0.137,-0.056,0.364,-23.621,57.800,-13.184
0.133,-0.080,0.525,32.593,14.832,-11.597
0.042,0.009,0.866,65.430,-32.593,-0.732
0.297,-0.208,1.491,40.405,-53.162,-6.897
0.297,-0.174,1.191,-6.287,0.488,-11.047
0.135,-0.195,0.752,14.465,28.625,-2.808
-0.065,-0.024,0.556,-13.428,36.682,7.263
-0.038,-0.104,0.611,21.179,-21.606,17.639
0.161,-0.114,1.716,-34.302,-46.204,2.258
0.296,-0.111,1.365,-26.489,16.174,4.944
0.292,-0.023,1.028,-8.118,71.899,-6.226
0.275,-0.202,0.483,15.137,64.697,0.610
0.334,-0.202,0.451,-84.900,80.505,-12.878
0.297,-0.132,0.384,-50.720,34.729,-3.784
0.441,-0.125,0.426,-0.427,-34.912,13.184
0.277,0.032,0.732,-6.714,-100.525,20.203
0.186,0.051,1.363,87.280,-161.621,26.917
-0.167,0.160,1.868,87.830,-133.606,36.621
-0.184,0.037,1.496,-1.892,32.043,0.366
-0.028,-0.023,0.697,-13.123,100.952,-26.733
0.081,-0.048,0.741,-8.118,33.081,-10.864
0.111,-0.094,0.898,51.331,12.634,-8.301
0.174,-0.114,1.033,38.086,7.446,-6.042
0.061,-0.115,0.870,11.475,13.611,-4.578
0.123,-0.109,0.865,-2.869,15.808,0.366
0.216,-0.107,1.036,-3.540,0.183,-2.686
0.189,-0.141,0.924,10.010,-2.747,-0.366
-0.031,-0.002,0.710,8.179,12.512,10.132
-0.125,-0.055,0.842,11.353,-32.043,23.376
0.044,-0.095,1.701,-38.696,-28.748,9.155
0.344,-0.113,1.699,-60.913,37.170,1.282
0.398,-0.065,1.470,-6.958,71.228,-11.719
0.277,-0.178,0.557,51.208,94.666,5.188
0.294,-0.182,0.355,-65.552,114.685,-12.817
0.242,-0.182,0.000,-99.304,102.417,-6.348
0.263,-0.170,-0.003,-45.532,26.794,11.169
0.341,-0.177,0.019,-21.545,-48.340,13.550
0.514,0.054,0.745,21.240,-145.081,32.410
0.302,-0.062,2.028,153.198,-281.677,44.922
-0.415,0.247,2.651,84.045,-231.873,42.603
-0.226,0.189,1.928,-1.038,96.558,8.484
0.041,-0.007,0.500,-33.813,211.060,-43.030
0.166,-0.109,0.162,-74.768,69.031,-23.682
0.139,-0.110,0.497,27.832,18.616,-18.188
0.198,-0.069,0.923,72.693,-26.306,-9.338
0.149,-0.201,1.285,79.285,-35.950,-6.409
0.214,-0.203,1.171,1.526,-14.343,-3.479
0.136,-0.101,0.867,-2.747,14.832,-0.061
0.099,-0.081,0.823,7.568,8.240,3.845
0.045,-0.052,0.814,8.362,11.780,5.371
-0.078,-0.021,0.714,15.442,-27.100,27.283
0.062,-0.104,1.665,-28.687,-46.753,7.080
0.127,-0.057,1.496,-36.194,15.076,13.184
0.342,-0.084,1.273,-22.827,86.731,-8.545
0.375,-0.219,0.543,24.048,80.078,-9.949
0.330,-0.131,0.528,-68.848,85.938,-5.554
0.266,-0.129,0.193,-74.951,69.519,1.404
0.429,-0.143,0.227,-18.433,-15.503,12.085
0.456,-0.002,0.611,4.639,-101.135,18.616
0.273,0.187,1.500,72.266,-186.401,26.245
-0.212,0.128,2.010,114.136,-181.580,32.593
-0.275,0.202,1.909,0.549,-1.526,16.296
-0.105,-0.034,0.725,-10.376,139.648,-30.334
0.130,-0.047,0.544,-42.847,60.425,-19.470
0.107,-0.087,0.744,35.034,13.489,-13.245
0.197,-0.132,1.001,59.814,-1.526,-8.545
0.129,-0.197,1.115,38.208,-4.517,-6.165
-0.165,0.022,0.717,7.019,34.485,7.385
-0.152,0.019,0.633,22.644,-16.663,24.231
0.126,-0.265,1.467,28.748,-78.674,-3.052
0.468,-0.285,2.530,-113.220,-6.958,-4.639
0.402,0.046,2.384,-70.618,78.796,-4.578
0.190,-0.075,0.787,88.989,179.749,12.756
0.201,-0.144,0.380,14.709,210.876,-11.169
0.249,-0.177,-0.021,-65.979,142.395,-8.057
0.276,-0.163,-0.058,-65.735,123.901,-5.798
0.286,-0.160,-0.112,-41.443,59.204,3.845
0.178,-0.127,-0.147,-52.002,21.362,11.047
0.035,-0.015,-0.120,-45.105,-19.226,23.499
0.253,-0.052,0.075,-18.982,-85.083,20.142
0.375,-0.175,0.225,59.387,-202.209,13.916
0.692,-0.139,2.789,177.124,-360.901,39.856
-0.260,0.250,3.927,71.716,-275.146,31.067
-0.297,0.066,1.558,29.297,111.511,16.052
0.011,0.138,0.506,-70.068,241.394,-19.714
0.208,-0.117,0.073,-82.275,82.153,-23.499
0.182,-0.122,0.084,4.517,21.973,-20.264
-0.467,0.111,0.148,17.273,-5.493,3.235
-0.012,-0.223,0.535,136.658,-109.619,45.654
0.336,-0.316,3.085,-28.076,-184.082,-25.208
0.457,-0.325,2.646,-59.998,6.165,-26.733
0.336,-0.069,1.338,18.005,164.917,1.038
0.280,-0.167,0.534,52.124,190.186,-1.404
0.246,-0.105,0.329,-22.888,122.253,-3.174
0.251,-0.154,0.039,-43.579,95.886,-2.014
0.270,-0.168,-0.049,-67.261,82.458,-2.380
0.269,-0.158,-0.091,-54.810,29.114,5.920
0.219,-0.108,-0.049,-61.340,-9.155,13.733
0.366,-0.085,0.051,-26.978,-71.716,24.963
0.108,-0.016,0.226,75.928,-230.530,42.908
0.083,0.111,3.453,195.923,-346.069,51.453
-0.418,0.272,3.203,64.697,-203.857,26.611
-0.079,-0.087,0.938,18.188,167.236,-6.897
0.096,0.153,0.567,-122.620,197.571,-31.067
0.189,-0.104,0.105,-32.898,60.303,-24.719
0.236,-0.101,1.263,110.046,-98.267,-11.963
0.033,-0.216,1.752,33.264,-83.435,-6.409
0.108,-0.199,0.996,2.747,26.672,-4.578
0.173,-0.119,0.724,-28.259,56.213,-0.366
0.150,-0.009,0.759,-21.484,16.052,4.089
0.168,-0.012,0.912,16.968,-1.404,1.648
0.075,0.008,0.874,31.311,-11.047,8.179
-0.120,-0.011,1.260,33.142,-37.354,19.714
-0.050,-0.010,1.295,0.732,-23.376,13.855
0.271,-0.172,1.114,-33.081,65.125,-22.156
0.391,-0.221,0.729,-28.809,73.120,-26.184
0.528,-0.221,1.975,-52.185,58.533,-17.090
0.420,-0.232,0.736,45.959,98.999,-4.272
0.263,-0.193,0.271,-25.330,141.174,-2.075
0.226,-0.184,-0.020,-94.177,106.995,6.226
0.268,-0.140,-0.022,-42.419,38.269,12.207
0.364,-0.158,0.038,-43.640,-10.620,13.428
0.385,-0.086,0.163,17.395,-120.667,31.250
0.188,0.380,1.693,77.942,-248.291,44.189
-0.225,0.233,2.956,149.719,-285.217,54.260
-0.253,0.202,1.993,7.141,-14.099,16.357
-0.158,-0.040,0.615,-7.629,221.619,-28.259
0.145,0.034,0.333,-98.999,101.868,-22.095
0.098,-0.068,0.466,20.142,31.738,-18.921
0.204,-0.067,0.873,65.369,-13.672,-14.038
0.147,-0.193,0.990,83.923,-22.217,-13.000
-0.083,-0.076,1.112,11.475,-22.583,2.380
-0.264,-0.015,0.929,-5.310,-12.085,15.686
0.144,-0.171,1.463,-39.246,6.592,2.808
0.454,-0.234,2.116,-71.655,30.640,-15.991
0.467,-0.088,2.017,3.174,38.818,-1.160
0.239,-0.085,0.861,72.571,129.944,2.625
0.217,-0.134,0.499,16.296,168.640,-5.310
0.234,-0.160,0.084,-59.387,121.582,-6.592
0.254,-0.157,-0.023,-58.472,97.412,-4.822
0.256,-0.168,-0.101,-42.908,45.349,2.808
0.209,-0.130,-0.118,-76.599,19.043,7.935
0.261,-0.078,-0.019,-76.416,-18.921,16.296
0.333,-0.154,0.129,17.578,-138.550,19.592
0.286,0.371,1.697,123.840,-311.279,44.250
-0.230,0.245,4.000,174.072,-332.825,44.922
-0.333,0.223,2.299,24.597,-62.744,31.799
-0.067,-0.062,0.505,-11.169,238.159,-20.874
0.155,0.012,0.235,-131.226,127.319,-21.057
0.150,-0.041,0.213,6.897,30.579,-18.982
0.185,-0.030,0.601,5.615,-1.404,-16.357
0.236,-0.047,1.026,96.069,-67.566,-14.587
0.032,-0.143,1.633,88.745,-83.008,1.892
-0.229,-0.055,1.193,7.690,-47.729,16.235
-0.105,-0.067,1.302,-30.701,25.574,2.014
0.434,-0.197,1.575,-55.725,70.190,-18.982
0.487,-0.233,0.925,6.104,58.167,-23.254
0.323,-0.260,0.653,9.949,73.181,-5.615
0.296,-0.178,0.314,-79.895,83.130,1.099
0.251,-0.190,0.082,-74.524,53.162,1.892
0.327,-0.114,0.224,-33.020,-12.756,14.465
0.311,0.004,0.549,24.780,-111.267,28.931
0.186,0.221,1.646,95.764,-198.425,35.645
-0.217,0.156,2.409,104.004,-197.510,35.583
-0.252,0.163,1.910,5.737,18.127,14.709
0.027,0.019,0.624,-18.738,158.508,-14.404
0.175,-0.034,0.461,-63.782,69.336,-14.771
0.149,-0.055,0.647,34.729,21.301,-11.414
0.212,-0.085,0.894,56.641,-4.211,-7.324
0.218,-0.188,0.925,58.655,-10.864,-9.583
0.180,-0.201,1.122,10.620,-16.846,-6.653
0.155,-0.157,0.929,-4.578,0.916,-2.380
0.203,-0.025,0.938,0.732,7.446,3.418
0.047,-0.056,0.916,12.451,-2.014,4.333
-0.100,0.010,0.703,18.860,-4.089,12.268
-0.003,-0.146,1.080,14.465,-51.086,21.484
-0.137,-0.029,1.824,-72.021,-3.113,1.770
0.377,-0.157,1.465,-33.325,61.707,4.944
0.371,-0.140,0.780,-2.563,100.769,-21.301
0.352,-0.246,0.363,-1.953,76.904,-0.671
0.239,-0.202,0.169,-101.318,94.116,-12.146
0.267,-0.138,0.058,-40.344,34.973,10.498
0.424,-0.120,0.266,-17.334,-39.185,13.672
0.281,0.026,0.736,30.334,-137.207,24.536
0.225,-0.052,2.001,126.953,-219.788,34.424
-0.282,0.185,2.186,50.293,-169.434,30.762
-0.116,0.081,1.617,5.615,78.125,5.493
0.055,0.023,0.602,-33.081,167.297,-25.452
0.187,-0.064,0.431,-53.833,55.847,-14.465
0.141,-0.080,0.649,37.537,9.827,-11.719
0.189,-0.065,0.968,60.425,-14.954,-6.348
0.178,-0.178,1.185,61.646,-20.508,-5.981
0.222,-0.179,0.970,1.343,-2.991,-4.822
0.131,-0.155,0.887,-2.075,4.639,-1.892
0.166,-0.038,0.971,3.357,-0.427,4.578
-0.090,-0.021,0.741,20.813,9.705,9.277
-0.187,0.001,0.560,46.082,-34.729,31.982
0.006,-0.189,1.900,20.752,-98.633,17.822
0.303,-0.097,2.568,-141.418,6.958,1.892
0.365,0.008,2.153,-39.368,151.428,-17.090
0.306,-0.174,0.692,101.746,191.833,2.380
0.237,-0.148,0.243,-47.363,200.989,-21.057
0.175,-0.178,-0.132,-94.116,182.373,-8.362
0.246,-0.108,-0.156,-18.127,74.646,12.695
0.307,-0.162,-0.056,-92.773,67.993,-8.118
0.255,-0.146,-0.146,-26.917,-3.906,9.705
0.224,-0.021,0.041,-9.277,-40.344,24.353
0.291,-0.102,0.187,25.146,-146.851,15.198
0.154,-0.120,0.022,74.524,-276.123,38.574
0.325,-0.083,2.385,96.924,-240.356,39.429
-0.442,0.220,4.000,83.557,-268.616,34.607
-0.271,0.060,1.265,40.161,107.544,12.512
0.139,0.130,0.578,-82.458,257.324,-23.621
0.230,-0.175,0.023,-69.458,77.209,-34.363
0.258,-0.147,0.150,8.850,18.860,-20.142
0.336,-0.179,0.262,3.113,-15.259,-14.160
0.296,-0.076,0.960,61.401,-83.618,-8.850
0.152,-0.157,1.791,103.943,-108.643,1.526
-0.028,-0.048,1.301,0.000,-29.114,14.038
0.010,-0.092,1.169,-16.602,39.429,4.456
0.149,-0.063,1.077,-7.019,13.550,2.808
0.276,-0.168,1.158,-10.620,27.344,-10.620
0.257,-0.176,0.706,2.991,48.218,-3.540
0.288,-0.168,0.558,-40.100,47.119,-2.136
0.327,-0.081,0.480,-48.828,18.982,3.052
0.276,-0.074,0.490,-15.320,-26.367,5.066
0.232,0.008,0.848,7.141,-84.106,11.292
0.195,-0.105,1.501,78.796,-121.948,15.076
-0.009,0.027,1.654,31.006,-78.003,13.367
-0.148,-0.042,0.968,1.953,48.279,-3.296
0.081,-0.030,0.722,-21.362,50.964,-7.812
0.096,-0.013,0.891,19.043,17.334,-2.808
0.126,-0.070,1.035,47.424,7.263,-2.808
0.158,-0.110,1.089,25.940,7.263,-2.747
0.123,-0.128,0.880,12.451,28.259,-4.639
0.369,-0.021,2.476,-86.609,84.778,-16.785
0.255,-0.249,0.397,83.862,183.838,8.423
0.308,-0.124,0.329,-61.768,212.708,-15.015
0.215,-0.162,-0.094,-33.325,112.244,3.662
0.298,-0.171,-0.099,-54.321,71.228,7.935
0.304,-0.200,-0.056,-107.544,61.707,-4.211
0.260,-0.083,-0.121,-29.968,-13.733,27.832
0.408,-0.152,0.028,40.161,-118.103,34.912
0.109,-0.010,0.305,119.141,-304.749,43.152
0.331,0.368,3.761,132.385,-276.855,45.410
-0.422,0.198,2.556,5.432,-184.692,17.944
-0.210,0.102,1.624,23.804,123.108,12.939
0.043,0.091,0.515,-40.710,203.064,-27.527
0.148,-0.047,0.192,-82.275,95.276,-28.015
0.147,-0.104,0.211,18.555,28.931,-26.184
0.160,-0.078,0.561,55.725,-24.170,-15.198
0.392,-0.281,1.560,79.285,-93.567,-18.127
0.123,-0.298,1.543,0.916,-53.345,-18.799
0.231,-0.192,0.978,12.207,19.409,-0.549
0.191,-0.144,0.725,-17.578,64.392,-0.610
-0.009,0.033,0.384,-46.875,44.556,21.118
0.090,0.012,1.420,29.053,-46.204,31.189
-0.038,-0.033,2.577,-25.513,-129.944,18.799
0.156,-0.069,2.279,-1.404,18.982,7.751
0.235,-0.051,0.820,36.377,177.734,-7.690
0.226,-0.128,0.407,28.870,176.453,-13.733
0.224,-0.131,0.065,-71.838,152.832,-10.925
0.269,-0.143,-0.043,-43.457,86.731,-5.432
0.297,-0.154,-0.063,-52.124,47.668,-4.456
0.228,-0.156,-0.136,-77.271,19.226,1.709
0.365,-0.120,0.039,-70.251,-22.644,8.118
0.352,-0.241,-0.051,48.645,-166.992,18.311
0.218,0.464,1.887,85.815,-320.496,52.612
-0.249,0.250,3.878,168.274,-304.138,39.917
-0.431,0.267,2.338,19.958,-20.203,22.156
-0.037,-0.020,0.559,-6.165,227.966,-20.264
0.147,-0.006,0.226,-119.812,124.146,-23.865
0.194,-0.071,0.220,-0.610,43.152,-23.193
0.200,-0.056,0.649,30.090,-9.277,-16.235
0.279,-0.173,1.028,102.844,-71.472,-14.160
0.113,-0.258,1.665,48.828,-74.158,-8.545
0.130,-0.168,1.107,-1.648,1.587,-3.845
0.150,-0.141,0.750,-14.709,47.241,-0.488
0.211,-0.075,0.690,-27.161,19.775,2.869
0.226,-0.012,0.819,-2.563,-8.972,3.784
0.146,-0.126,1.184,44.250,-42.847,2.869
0.003,-0.021,1.364,22.034,-12.817,4.150
0.089,-0.082,0.682,7.263,41.138,9.583
0.115,-0.109,0.719,-10.437,13.550,-0.061
0.148,-0.087,1.068,4.761,-19.165,6.775
0.127,-0.104,1.089,-6.775,9.888,-2.136
0.271,-0.117,0.796,-3.662,35.461,-1.953
0.325,-0.153,0.692,-9.827,11.230,-4.761
0.221,-0.081,0.709,-14.832,-2.686,2.686
0.270,-0.064,0.890,-14.526,-25.757,1.831
0.251,-0.043,1.055,2.869,-49.683,2.502
0.151,-0.044,1.366,15.930,-53.711,10.498
-0.028,-0.003,1.098,4.639,-12.756,8.789
-0.113,0.003,0.876,17.456,18.005,2.258
0.129,-0.077,0.948,17.334,15.686,0.549
0.125,-0.076,0.996,15.564,16.724,0.305
0.105,-0.051,0.995,14.832,17.822,2.686
0.142,-0.070,0.944,14.832,18.372,1.465
0.186,-0.112,0.794,7.385,22.339,-1.892
0.281,-0.111,0.862,0.671,4.211,-2.380
0.096,-0.063,0.874,5.676,2.075,1.831
-0.061,-0.055,0.680,0.427,-15.259,12.085
0.103,-0.159,1.653,-24.902,-38.879,9.521
0.198,-0.072,1.652,-41.809,-1.038,16.418
0.230,0.060,1.581,-21.484,61.523,-0.549
0.255,-0.181,0.504,36.865,103.394,-3.845
0.288,-0.200,0.271,-78.796,119.019,-23.071
0.245,-0.173,0.042,-85.083,80.200,-4.089
0.376,-0.195,-0.001,-19.775,0.549,10.376
0.440,-0.094,0.331,-12.573,-75.806,17.151
0.202,0.111,0.958,65.186,-181.641,27.405
-0.155,0.176,2.714,132.141,-240.356,36.804
-0.301,0.177,2.106,26.733,-92.590,27.344
-0.146,-0.059,0.832,1.282,169.373,-11.169
0.114,0.018,0.437,-71.289,121.338,-20.935
0.211,-0.109,0.434,-2.441,37.598,-17.822
0.220,-0.068,0.769,49.927,-9.155,-9.399
0.149,-0.175,1.095,75.500,-22.339,-5.554
0.216,-0.193,1.142,20.874,-19.226,-4.150
0.162,-0.163,0.911,-2.136,7.446,-2.258
0.179,-0.051,0.831,0.122,10.681,3.296
0.163,-0.088,0.926,3.235,0.793,2.441
0.188,-0.092,0.905,2.502,-5.188,1.160
0.198,-0.006,1.178,-2.747,-19.226,2.380
0.036,-0.048,1.092,11.353,-3.906,3.540
-0.160,0.014,0.602,10.010,33.142,19.165
0.161,-0.068,1.368,-16.357,-14.404,17.822
0.159,-0.098,1.431,-31.128,-19.470,1.526
0.308,-0.078,1.767,-22.400,39.490,0.916
0.271,-0.202,0.322,18.555,95.032,-6.287
0.320,-0.186,0.370,-47.058,78.430,-11.536
0.276,-0.122,0.227,-40.039,49.805,2.686
0.371,-0.149,0.239,-46.021,13.916,3.723
0.457,-0.091,0.489,-22.339,-60.425,6.226
0.329,0.078,1.118,59.204,-175.415,21.790
-0.157,0.098,2.107,95.703,-210.144,30.029
-0.235,0.184,1.811,15.808,-76.050,30.762
-0.275,-0.033,0.905,-0.977,145.447,-13.733
0.098,0.000,0.510,-40.955,102.966,-19.836
0.213,-0.080,0.646,4.639,25.024,-14.893
0.122,-0.077,0.937,59.448,-5.066,-8.667
0.115,-0.152,1.186,52.429,-4.333,-3.662
0.049,-0.117,0.886,8.972,18.494,-2.563
0.203,-0.131,0.764,-3.357,20.935,-0.244
0.334,-0.142,1.016,-1.465,-8.362,-4.700
0.139,-0.081,0.866,10.010,5.981,2.808
0.086,-0.092,0.791,-1.953,9.583,7.568
0.204,-0.144,1.233,-15.747,-4.822,4.395
0.120,-0.042,1.228,-10.803,-11.292,9.155
0.136,-0.087,1.093,-4.028,13.550,2.258
0.175,-0.073,0.678,5.554,43.335,0.061
0.264,-0.155,0.782,-8.118,40.649,-3.357
0.298,-0.097,0.649,-31.982,21.301,-0.305
0.295,-0.021,0.584,-21.240,-13.794,7.019
-0.289,0.167,2.001,35.889,-137.756,27.344
-0.233,0.025,1.173,1.892,122.681,-1.221
0.024,0.022,0.507,-29.175,136.658,-22.949
0.232,-0.090,0.534,-19.775,39.856,-17.700
0.169,-0.100,0.805,49.683,-4.211,-12.268
0.118,-0.125,1.192,65.674,-10.254,-4.028
0.098,-0.159,1.048,18.799,0.793,-0.732
0.151,-0.106,0.777,-1.648,26.001,0.549
0.303,-0.095,1.028,-2.380,-2.136,-1.892
0.154,-0.100,0.870,13.306,7.690,3.357
-0.031,-0.007,0.578,0.916,5.798,17.273
0.184,-0.129,1.698,-9.705,-57.617,19.409
0.119,-0.047,2.202,-49.805,-49.805,15.137
0.061,-0.001,1.919,-3.784,57.129,11.658
0.230,-0.100,0.649,29.358,155.029,-4.089
0.277,-0.138,0.307,-48.035,159.973,-20.386
0.257,-0.194,-0.062,-107.300,138.123,-14.648
0.267,-0.150,-0.086,-35.767,39.001,9.399
0.336,-0.168,-0.007,-57.922,9.521,2.930
0.395,-0.166,0.031,11.230,-91.980,21.118
0.059,-0.031,0.423,43.823,-219.788,33.875
0.046,0.326,3.512,144.958,-290.100,53.040
-0.359,0.199,2.584,40.710,-148.682,19.531
-0.200,0.008,0.916,28.015,156.189,6.592
0.048,0.082,0.503,-57.434,159.302,-15.747
0.224,-0.082,0.284,-40.955,64.941,-24.353
0.256,-0.086,0.588,31.677,10.071,-19.592
0.204,-0.148,0.779,88.867,-33.142,-10.742
0.221,-0.258,1.412,41.016,-49.622,-7.446
0.164,-0.119,1.255,-6.042,-16.602,-5.066
0.112,-0.130,0.761,9.705,37.170,0.610
0.023,-0.028,0.491,-18.250,26.611,8.362
0.195,-0.084,1.294,3.601,-24.536,10.681
0.094,-0.075,1.599,-16.479,-58.411,10.742
0.062,-0.037,1.554,-11.780,6.958,5.249
0.152,-0.058,0.671,15.320,78.430,0.122
0.291,-0.108,0.596,-34.851,95.398,-10.132
0.341,-0.143,0.323,-87.219,71.899,-12.634
0.423,-0.125,0.289,-15.198,-3.174,3.662
0.221,-0.018,0.581,-0.732,-73.547,7.935
0.255,0.134,1.254,43.091,-142.944,11.719
-0.060,0.016,1.988,93.323,-158.936,20.508
-0.290,0.140,1.763,8.057,-23.865,16.846
-0.059,-0.044,0.698,-1.770,116.699,-10.803
0.156,-0.050,0.604,-37.415,56.946,-14.832
0.175,-0.092,0.792,36.377,11.230,-10.681
0.177,-0.147,1.028,57.495,-0.977,-5.188
0.122,-0.147,1.170,21.729,-1.404,-2.869
0.159,-0.154,0.790,6.836,27.161,-1.770
0.238,-0.083,0.766,-8.545,19.653,0.977
0.226,-0.106,0.934,2.747,-0.732,-0.854
0.185,-0.067,0.946,1.831,-3.784,2.441
0.161,-0.092,1.006,2.136,-8.179,2.075
0.120,-0.077,0.997,4.211,-17.700,3.052
0.091,0.003,0.992,1.709,5.737,-2.075
0.131,-0.142,0.877,4.883,12.024,2.747
0.092,-0.077,0.989,-1.160,16.357,7.385
0.207,-0.073,0.995,-10.254,4.639,9.705
0.246,-0.141,1.067,-4.822,-3.845,-0.916
0.208,-0.055,0.833,3.479,7.385,3.479
0.222,-0.040,0.830,3.784,16.052,0.122
0.204,-0.117,0.749,10.193,5.371,-1.343
0.233,-0.102,0.838,-1.038,-12.939,-1.221
0.228,-0.111,0.907,-12.207,-37.415,13.733
0.202,-0.120,1.136,-10.986,-50.537,0.793
-0.007,-0.009,1.201,-6.409,-31.982,11.597
-0.121,-0.012,0.998,8.240,-3.601,8.850
0.153,-0.033,0.988,8.911,10.925,2.075
0.079,-0.040,1.030,11.536,13.916,2.563
0.102,-0.048,1.062,19.348,16.724,2.991
0.122,-0.065,0.923,21.240,27.893,0.793
0.138,-0.089,0.844,16.846,29.968,-2.014
0.246,-0.133,0.748,5.554,25.208,-3.723
0.292,-0.143,0.937,-7.080,4.822,-3.052
0.173,-0.057,0.953,-2.014,-3.540,2.869
0.195,-0.092,0.935,3.296,-1.404,2.258
0.180,-0.103,0.954,0.183,-8.728,2.380
0.141,-0.065,1.018,1.709,-20.813,4.211
0.106,-0.053,0.941,3.967,7.202,-1.709
0.115,-0.095,0.918,2.441,12.085,2.991
0.134,-0.146,0.999,4.272,9.277,2.258
0.236,-0.047,0.883,0.610,13.367,8.789
0.173,-0.009,0.948,0.977,-1.221,5.737
0.153,-0.096,0.899,7.263,-1.160,1.282
0.147,-0.091,0.962,3.845,-3.479,1.831
0.196,-0.094,0.754,-1.587,2.869,0.305
0.223,-0.106,0.899,-6.958,-12.329,-0.488
0.172,-0.044,1.094,-13.916,-33.569,1.953
0.072,-0.098,1.128,-6.531,-31.799,1.709
0.002,-0.026,1.082,1.221,-5.859,4.944
0.148,-0.007,0.944,12.146,15.686,4.883
0.178,-0.117,0.838,18.677,20.081,0.854
0.142,-0.081,0.970,9.949,11.597,1.160
0.134,-0.091,1.008,7.263,8.362,2.563
0.144,-0.083,0.938,9.399,12.634,4.578
0.184,-0.088,0.875,6.958,15.503,3.906
0.201,-0.082,0.868,2.991,10.742,3.174
0.185,-0.086,0.924,0.671,-0.244,2.747
0.162,-0.071,1.001,-0.488,-6.287,2.686
0.188,-0.077,0.970,0.427,-6.775,2.441
0.114,0.001,1.014,2.869,-10.681,4.028
0.103,0.009,1.008,11.963,8.179,0.732
0.129,-0.124,0.635,3.418,24.536,2.319
0.222,-0.153,1.206,-21.240,-3.479,0.732
0.175,-0.067,1.163,-9.338,-24.414,14.099
0.144,-0.065,1.203,-6.042,6.104,3.052
0.233,-0.073,0.579,10.498,34.973,-0.366
0.213,-0.081,0.748,6.836,23.987,-2.502
0.225,-0.129,0.682,-8.484,9.460,-0.793
0.291,-0.086,0.677,-22.827,-22.461,1.892
0.271,-0.000,0.974,-18.066,-62.683,2.380
0.179,-0.069,1.539,17.456,-85.754,3.723
-0.120,0.056,1.482,2.930,-41.809,15.564
-0.190,-0.008,0.779,14.648,43.762,0.671
0.103,-0.063,0.911,17.578,27.344,-5.920
0.092,-0.048,1.096,17.883,12.512,0.305
0.083,-0.053,0.980,24.780,24.902,0.427
0.123,-0.093,0.885,19.714,30.212,-2.502
0.085,-0.132,0.745,11.169,25.696,-4.028
-0.403,0.231,2.126,9.155,-7.080,22.217
-0.156,-0.041,0.487,-0.671,226.013,-24.292
0.150,-0.044,0.311,-77.393,103.455,-25.635
0.218,-0.124,0.478,26.428,27.649,-19.287
0.222,-0.065,0.848,60.059,-12.634,-8.667
0.135,-0.139,1.095,74.829,-21.179,-3.906
0.250,-0.176,1.209,4.089,-20.081,-1.038
0.087,-0.147,0.879,-0.549,9.277,-4.150
0.054,-0.094,0.511,5.127,29.724,6.409
0.005,-0.096,0.853,-14.954,-20.447,15.747
0.269,-0.067,2.081,-44.373,-67.566,15.320
0.193,0.120,2.359,-24.231,-36.133,15.259
0.023,-0.021,1.913,38.452,90.942,1.587
0.183,-0.098,0.655,60.852,197.815,-3.174
0.226,-0.119,0.395,-20.203,206.177,-22.888
0.249,-0.118,-0.005,-83.435,163.513,-14.282
0.254,-0.151,-0.122,-32.166,87.891,-2.686
0.295,-0.193,-0.101,-65.369,51.453,-9.460
0.275,-0.193,-0.175,-58.044,16.235,-1.770
0.224,-0.153,-0.183,-52.368,-27.100,13.611
0.327,-0.187,0.109,-20.325,-101.013,13.855
0.136,-0.136,0.167,115.417,-302.979,35.339
0.263,0.301,3.899,151.123,-290.405,46.997
-0.587,0.250,3.521,42.786,-217.224,29.846
-0.191,-0.008,0.941,29.602,157.166,7.263
0.204,0.017,0.469,-91.064,210.632,-32.227
0.347,-0.225,0.097,-52.429,50.964,-30.151
0.205,-0.203,0.173,9.705,3.662,-10.498
0.253,-0.038,0.799,22.522,-30.762,-0.549
0.325,-0.240,1.365,102.722,-102.661,3.357
-0.016,-0.054,1.768,37.476,-91.492,9.094
0.112,-0.109,1.021,7.446,21.179,5.920
0.114,-0.120,0.713,-17.639,65.857,1.465
0.127,0.016,0.573,-28.870,37.720,9.521
0.107,-0.085,0.862,31.982,-22.461,12.085
0.253,-0.080,1.439,20.630,-68.237,13.855
0.177,-0.120,1.360,-13.245,2.808,-4.272
0.208,-0.114,0.603,5.737,56.641,-1.343
0.193,-0.124,0.659,-5.920,40.161,0.183
0.258,-0.096,0.606,-32.959,33.264,1.770
0.271,-0.014,0.585,-26.062,-7.874,5.432
0.238,0.020,0.770,-5.371,-56.213,5.310
0.187,-0.115,1.260,40.955,-90.393,0.610
-0.020,-0.012,1.632,20.142,-72.754,9.460
-0.172,-0.006,1.048,7.202,20.020,2.502
0.166,-0.075,0.811,7.385,44.312,-5.371
0.102,-0.025,0.949,13.062,18.433,-2.747
0.129,-0.088,1.006,32.166,11.902,-1.038
0.128,-0.091,0.936,19.653,20.569,0.000
0.168,-0.125,0.794,12.695,25.208,-1.892
0.276,-0.112,0.794,-6.470,18.311,-3.052
0.166,-0.141,0.982,-1.526,-4.639,-0.854
0.170,-0.061,0.932,-1.282,-2.930,2.991
0.210,-0.110,0.890,3.784,-2.136,2.014
0.183,-0.031,1.168,3.052,-22.888,5.493
0.033,-0.066,0.844,15.686,12.146,3.845
-0.058,-0.009,0.496,-0.732,27.893,14.771
0.162,-0.123,1.581,-19.409,-48.950,10.864
0.246,-0.125,1.454,-27.649,-15.808,7.324
0.120,0.066,1.559,-13.550,49.072,0.427
0.227,-0.170,0.331,26.123,94.910,3.296
0.341,-0.215,0.364,-55.176,83.435,-19.043
0.265,-0.161,0.155,-52.795,53.955,2.136
0.420,-0.156,0.206,-55.847,17.456,7.263
0.383,-0.088,0.522,6.714,-95.520,13.367
0.354,0.013,1.423,80.017,-198.242,27.588
-0.196,0.132,2.095,70.923,-200.195,36.194
-0.264,0.198,1.752,9.155,-10.620,26.733
-0.240,-0.019,0.703,0.122,166.199,-20.996
0.159,-0.027,0.481,-45.349,78.003,-16.113
0.162,-0.071,0.706,20.203,16.296,-14.282
0.129,-0.079,0.962,63.965,-6.714,-6.531
0.135,-0.144,1.186,44.739,-7.874,-3.052
0.072,-0.091,0.827,1.587,18.921,-2.014
0.256,-0.117,0.997,-0.488,2.625,-1.892
0.091,-0.136,0.806,8.728,13.184,-0.854
0.058,-0.103,0.540,-11.414,8.484,13.367
0.348,-0.082,2.117,-49.866,-43.823,14.954
0.166,0.101,2.333,-20.325,-67.444,21.118
-0.056,-0.031,1.926,21.118,52.246,7.690
0.179,-0.057,0.720,48.950,174.866,-2.075
0.280,-0.141,0.435,-10.742,190.552,-20.081
0.278,-0.169,0.016,-94.116,157.104,-19.714
0.271,-0.162,-0.120,-36.316,78.857,3.113
0.295,-0.167,-0.054,-73.547,47.852,-4.211
0.231,-0.180,-0.160,-49.194,0.427,2.991
0.404,-0.172,0.037,-28.870,-61.157,14.709
0.213,-0.119,0.272,57.983,-215.698,22.095
0.270,-0.039,2.291,134.521,-288.696,53.894
-0.387,0.270,3.656,82.825,-252.563,33.508
-0.472,0.172,1.869,31.860,50.293,24.719
0.043,0.014,0.486,-21.851,207.764,-14.526
0.314,-0.150,0.188,-104.614,107.056,-34.790
0.360,-0.185,0.224,-2.808,24.292,-23.743
0.238,-0.109,0.588,27.710,-15.198,-5.798
0.302,-0.189,1.167,100.403,-92.651,3.723
0.042,-0.077,1.767,52.185,-90.332,6.165
-0.009,-0.042,0.946,-0.366,23.315,15.076
-0.004,-0.048,0.936,-16.235,53.467,2.991
0.263,-0.094,1.123,0.366,-18.494,7.935
0.239,-0.119,1.214,-10.925,4.395,-8.484
0.192,-0.133,0.641,7.507,44.983,5.615
0.280,-0.102,0.741,-27.344,40.833,-1.953
0.267,-0.063,0.590,-34.546,16.724,2.075
0.286,-0.024,0.527,-27.100,-16.174,6.104
0.226,0.038,0.864,3.174,-68.481,6.104
0.200,-0.131,1.644,62.622,-109.253,4.639
-0.097,0.020,1.695,17.578,-67.505,9.705
-0.172,-0.042,0.872,12.207,57.678,2.441
0.129,-0.038,0.707,-22.461,57.434,-7.690
0.132,-0.066,0.779,10.559,23.010,-5.310
0.151,-0.061,0.936,39.307,7.507,-2.808
0.147,-0.116,1.109,36.133,-2.930,-3.174
0.170,-0.161,0.988,10.986,6.836,-2.197
0.238,-0.126,0.770,-3.723,25.696,-1.526
0.167,-0.068,0.823,-3.113,4.578,1.831
0.162,-0.042,1.013,7.874,-13.733,4.639
0.137,-0.056,0.895,12.634,1.343,1.587
0.121,-0.089,0.946,-3.418,3.540,0.610
0.107,0.050,2.531,-18.127,47.974,6.470
0.147,-0.015,0.864,61.157,208.801,6.592
0.181,-0.134,0.249,28.931,235.718,-17.273
0.234,-0.134,-0.008,-58.960,151.306,-10.681
0.242,-0.134,-0.069,-49.500,115.295,-7.812
0.272,-0.143,-0.105,-40.955,58.167,0.244
0.290,-0.200,-0.142,-39.673,27.161,-2.380
0.268,-0.160,-0.164,-62.866,3.845,7.019
0.274,-0.130,-0.152,-79.651,-30.457,16.357
0.309,-0.086,0.165,7.080,-136.475,24.658
0.078,0.009,0.489,156.921,-345.459,50.781
-0.169,0.393,4.000,121.948,-300.659,38.635
-0.606,0.211,3.165,35.095,-165.161,32.959
-0.018,-0.098,0.510,8.789,238.770,-12.817
0.238,-0.033,0.328,-132.874,179.443,-34.485
0.367,-0.218,0.102,-18.616,28.076,-29.663
0.182,-0.202,0.136,-9.705,4.822,-8.118
0.192,-0.112,0.534,24.597,-39.734,-0.610
0.306,-0.129,1.253,97.717,-104.980,4.944
0.006,-0.060,2.016,68.481,-122.498,9.583
0.063,-0.087,1.200,9.094,7.629,7.507
0.105,-0.083,0.783,-18.982,88.379,1.465
0.195,-0.042,0.568,-34.851,46.814,5.066
0.221,0.010,0.852,12.207,5.676,2.625
0.216,-0.154,1.125,42.236,-25.391,0.305
0.073,-0.109,1.151,10.681,-15.930,1.709
0.183,-0.136,0.793,-0.122,20.935,1.831
0.243,-0.069,0.764,-10.498,15.686,4.272
0.220,-0.010,0.765,-11.353,-0.366,4.639
0.200,0.023,0.916,3.174,-25.024,2.197
0.127,-0.086,1.001,19.287,-46.509,-3.174
0.104,-0.142,1.241,8.423,-37.659,-3.906
0.038,-0.082,0.921,-3.113,1.465,4.211
0.144,-0.068,0.942,1.282,3.235,4.150
0.129,-0.047,1.084,2.380,-2.808,3.662
0.115,-0.044,1.051,7.629,5.615,4.211
0.124,-0.071,0.983,15.869,15.076,3.235
0.157,-0.109,0.871,17.090,21.912,2.014
0.170,-0.071,0.858,7.263,20.691,2.319
0.206,-0.086,0.852,4.700,10.620,2.258
0.185,-0.110,0.910,5.554,0.488,1.099
0.163,-0.088,0.954,0.610,-6.104,1.770
0.152,-0.084,0.944,-0.793,-6.348,2.502
0.145,-0.088,0.957,-0.427,-7.202,2.258
0.145,-0.074,0.998,-1.770,-6.958,2.747
0.146,-0.074,0.997,0.061,-5.127,2.441
0.145,-0.074,0.975,2.319,-2.136,2.075
0.145,-0.078,0.963,3.906,0.549,1.892
0.150,-0.076,0.950,4.517,2.747,1.892
0.182,-0.070,1.006,4.333,3.174,2.258
0.128,0.010,1.082,10.681,4.211,3.418
0.111,-0.099,0.649,9.094,29.297,1.160
0.203,-0.143,1.182,-29.053,12.817,5.676
0.158,-0.049,1.336,-15.564,-29.663,14.282
0.027,0.012,1.485,-3.479,4.089,7.629
0.187,-0.121,0.370,16.113,67.871,-0.549
0.314,-0.177,0.397,-29.297,51.941,-12.268
0.317,-0.167,0.320,-42.236,24.902,-5.249
0.334,-0.073,0.574,-26.428,-21.851,2.869
0.334,0.017,0.956,43.701,-113.525,11.719
0.095,-0.026,2.012,38.391,-146.057,12.451
-0.234,0.110,1.518,1.953,-77.209,24.963
-0.169,0.025,0.978,7.751,75.867,9.155
0.085,-0.016,0.633,-8.484,77.881,-14.465
0.219,-0.078,0.741,8.118,25.757,-11.536
0.154,-0.153,0.951,44.678,3.235,-8.484
0.134,-0.120,1.182,27.161,-0.793,-1.160
0.081,-0.113,0.994,14.404,21.179,-0.610
0.151,-0.139,0.713,11.719,37.109,-0.549
0.314,-0.086,0.927,-10.620,11.414,-2.075
0.152,-0.119,0.897,13.367,-11.047,1.465
0.000,-0.009,0.544,-11.780,21.179,20.752
0.145,-0.095,2.169,-26.245,-68.909,31.616
0.158,0.200,2.701,-39.246,-84.839,24.963
0.024,-0.190,1.612,64.148,77.332,3.845
0.187,-0.052,0.871,10.681,212.646,-9.216
0.274,-0.102,0.354,-6.042,213.074,-22.217
0.225,-0.166,-0.039,-67.139,153.320,-19.958
0.260,-0.133,-0.097,-29.114,91.736,0.061
0.284,-0.161,-0.091,-78.064,62.927,-6.714
0.287,-0.218,-0.205,-50.232,15.747,-3.418
0.260,-0.166,-0.204,-63.477,-18.677,9.766
0.386,-0.197,0.080,-11.902,-107.605,13.733
0.149,-0.123,0.224,111.816,-318.176,37.903
0.329,0.144,3.582,130.066,-268.250,52.246
-0.630,0.281,3.762,42.236,-228.577,31.921
-0.241,0.032,1.260,39.673,110.291,8.972
0.194,-0.028,0.454,-61.829,226.135,-33.203
0.372,-0.232,0.119,-85.449,79.529,-30.396
0.279,-0.193,0.217,20.020,-30.151,0.549
0.261,-0.122,1.166,84.717,-90.332,5.432
0.174,-0.057,1.726,54.932,-91.553,10.193
0.080,-0.059,1.045,-0.061,18.616,15.564
-0.087,0.044,0.699,-17.212,69.519,12.878
0.130,-0.049,1.299,-6.775,-14.954,11.475
0.204,-0.139,1.535,-14.038,-16.663,-1.160
0.226,-0.034,0.856,10.010,46.082,-2.136
0.254,-0.095,0.620,-7.324,67.505,-5.615
0.264,-0.155,0.320,-55.542,51.453,-8.911
0.354,-0.151,0.205,-51.453,17.151,-6.409
0.253,-0.055,0.528,-9.399,-47.058,5.127
0.217,0.048,1.068,77.820,-155.151,14.648
-0.195,0.028,2.389,54.260,-176.819,14.526
-0.287,0.131,1.636,0.488,-35.339,23.132
0.011,-0.061,0.669,6.592,127.991,-4.822
0.202,-0.061,0.501,-54.688,75.500,-14.221
0.216,-0.083,0.651,9.338,21.484,-12.024
0.194,-0.040,0.935,53.162,-10.498,-3.601
0.100,-0.125,1.222,55.542,-13.977,-2.258
0.130,-0.150,1.107,14.648,2.014,-1.282
0.182,-0.154,0.746,8.484,32.410,-0.610
0.215,-0.096,0.750,-1.038,13.184,0.671
0.097,-0.088,0.723,1.221,10.559,4.700
0.029,-0.082,0.848,-15.686,-5.432,18.494
0.224,0.024,1.787,-40.344,-31.067,13.611
0.218,-0.073,1.457,-8.423,-12.207,11.902
0.131,0.036,1.362,-1.892,65.002,-2.686
0.221,-0.147,0.445,31.677,107.788,-1.038
0.279,-0.186,0.213,-97.107,113.831,-25.574
-0.438,0.197,1.891,11.169,-34.424,30.945
-0.000,-0.075,0.572,2.258,194.519,-16.418
0.180,-0.072,0.324,-84.290,100.159,-24.658
0.302,-0.156,0.452,2.930,28.870,-21.851
0.261,-0.091,0.822,50.171,-22.705,-7.874
0.104,-0.160,1.283,79.773,-34.119,-0.061
0.179,-0.197,1.280,22.400,-13.123,0.854
0.190,-0.089,0.841,3.357,26.733,2.258
0.111,-0.093,0.722,-10.315,27.100,3.662
0.038,-0.055,0.553,-7.141,17.700,9.094
0.286,-0.048,1.504,-8.179,-24.414,17.334
0.199,-0.004,1.601,-25.391,-34.241,14.343
0.062,-0.008,1.668,-9.949,14.954,2.441
0.170,-0.075,0.691,29.480,81.177,1.099
0.231,-0.150,0.318,-36.316,110.046,-14.526
0.252,-0.163,0.074,-104.126,79.590,-13.367
0.348,-0.181,0.002,-25.635,7.996,2.258
0.307,-0.177,0.140,-20.569,-65.430,5.859
0.204,0.076,1.019,66.711,-183.472,23.315
-0.306,0.103,2.935,114.685,-252.136,35.034
-0.445,0.206,2.045,9.277,-45.654,34.241
0.013,-0.067,0.592,4.395,181.519,-12.573
0.173,-0.064,0.358,-77.942,106.201,-21.790
0.281,-0.125,0.478,4.944,36.987,-17.517
0.278,-0.091,0.782,50.659,-10.559,-6.531
0.151,-0.124,1.087,70.313,-24.536,-1.404
0.147,-0.186,1.353,33.813,-22.400,0.366
0.230,-0.162,0.826,3.906,23.315,0.977
0.173,-0.014,0.880,-11.719,20.996,4.700
0.109,-0.085,0.855,26.062,-8.484,7.629
0.025,-0.071,0.540,-7.202,13.245,12.695
0.342,-0.055,2.044,-52.368,-30.701,20.264
0.191,0.048,1.844,-16.296,-47.791,20.447
0.086,0.007,1.871,1.465,59.998,-0.244
0.215,-0.149,0.354,32.104,132.446,-1.770
0.293,-0.198,0.262,-63.660,125.061,-25.208
0.285,-0.171,0.023,-58.655,78.430,-15.137
0.291,-0.136,-0.027,-38.391,30.823,7.324
0.220,-0.150,0.054,-62.317,-21.118,2.136
0.304,-0.163,0.099,20.752,-117.981,17.456
0.354,-0.048,1.493,109.436,-239.563,27.344
-0.455,0.241,3.280,93.445,-283.936,36.621
-0.438,0.206,1.851,13.611,37.476,22.034
0.039,-0.047,0.464,-12.451,233.521,-29.114
0.191,-0.130,0.175,-95.032,79.956,-26.794
0.343,-0.152,0.452,8.606,26.489,-22.095
0.211,-0.088,0.855,60.486,-29.846,-7.812
0.085,-0.189,1.425,90.698,-47.119,2.075
0.246,-0.086,1.409,18.188,-19.592,2.869
0.143,-0.202,0.667,7.690,44.067,0.122
-0.022,0.039,0.419,-29.663,49.744,18.677
0.134,-0.097,1.951,4.700,-70.313,34.729
0.132,0.346,3.332,-65.125,-136.536,23.560
-0.043,-0.203,2.526,39.001,74.829,-1.038
0.174,0.048,1.362,66.589,243.164,-10.132
0.200,-0.157,0.364,80.750,294.495,-22.339
0.149,-0.065,0.061,-86.914,231.262,-20.020
0.145,-0.090,-0.094,-8.606,158.813,-11.414
0.163,-0.096,-0.190,-20.264,111.633,-5.005
0.262,-0.183,-0.208,-34.668,91.064,-16.113
0.224,-0.202,-0.196,-65.857,62.683,-17.822
0.215,-0.177,-0.178,-32.837,-0.488,5.920
0.300,-0.261,-0.182,-27.222,-64.148,6.592
0.289,-0.295,-0.238,-79.651,-79.529,9.766
0.368,-0.160,0.240,-55.847,-133.911,27.710
0.181,-0.129,0.259,115.173,-325.989,45.654
0.374,-0.320,3.077,102.661,-323.730,49.622
-0.462,0.409,4.000,70.984,-470.642,68.848
-0.271,0.009,1.585,46.082,133.606,14.648
0.302,0.154,0.775,-118.530,376.831,-36.621
0.130,-0.230,-0.241,-32.227,78.918,-13.245
-0.093,0.042,0.139,38.757,42.114,7.385
0.089,0.012,0.054,-31.860,59.082,11.780
0.320,-0.194,0.198,20.813,-84.229,-16.541
0.594,-0.218,1.058,78.491,-112.549,-10.193
0.115,-0.126,2.154,68.726,-148.254,2.747
0.061,-0.079,1.358,0.122,-16.541,7.812
0.220,-0.124,0.684,-19.165,79.712,0.916
0.301,-0.089,0.371,-74.951,19.592,1.831
0.156,-0.018,0.538,-10.620,-48.157,6.592
0.093,0.015,1.194,46.936,-101.929,6.104
-0.130,-0.025,1.799,51.025,-88.074,10.864
0.066,-0.075,1.183,15.503,7.568,2.930
0.163,-0.095,0.877,0.671,64.758,-2.319
0.156,-0.026,0.829,-9.399,38.330,2.319
0.113,-0.022,0.831,12.939,26.306,2.625
0.125,-0.043,0.877,23.315,15.503,0.366
0.162,-0.081,0.924,28.748,9.277,-2.197
0.300,-0.157,0.899,19.348,6.104,-4.211
0.192,-0.108,0.915,-0.916,-0.549,-0.610
0.131,-0.027,1.021,3.479,-11.169,5.920
0.147,-0.092,0.943,9.521,0.305,0.549
0.194,-0.103,0.930,-4.150,8.118,-1.160
0.161,-0.098,0.994,-6.409,1.953,0.244
0.220,-0.119,0.990,1.587,0.549,3.052
0.209,-0.150,0.819,-4.089,4.639,2.258
0.159,0.002,0.848,-20.142,-3.113,8.911
0.086,0.008,0.908,3.906,-16.846,4.944
0.120,-0.142,1.050,16.663,-15.808,-2.686
0.166,-0.147,1.141,6.775,-10.986,-2.502
0.149,-0.050,0.979,0.793,2.563,3.967
0.138,-0.100,0.938,6.409,5.554,2.319
0.156,-0.067,0.931,7.263,7.507,2.136
0.167,-0.101,0.897,7.080,7.996,1.953
0.169,-0.069,0.927,4.333,4.700,2.197
0.167,-0.104,0.948,4.211,1.221,2.075
0.154,-0.068,0.973,2.380,-1.038,2.014
0.151,-0.075,0.947,0.977,-0.854,2.319
0.167,-0.074,0.934,1.892,0.122,2.014
0.154,-0.026,1.148,0.732,-2.808,3.357
0.094,-0.103,0.906,27.466,3.113,11.108
-0.130,-0.056,0.521,1.831,45.837,15.320
-0.166,-0.116,1.810,-44.373,-46.997,16.785
0.214,-0.081,2.574,-43.030,-67.383,31.555
0.087,0.108,1.764,10.498,110.168,1.953
0.299,-0.167,0.433,69.702,208.313,-2.563
0.222,-0.122,0.184,-80.383,183.533,-25.513
0.224,-0.153,-0.138,15.198,76.782,7.751
0.336,-0.110,0.049,-72.754,81.848,-1.221
-0.368,0.240,3.385,45.227,-225.586,32.898
-0.347,0.150,1.812,27.527,69.763,18.188
0.077,-0.015,0.491,-103.638,109.497,-30.151
0.210,-0.109,0.282,14.038,31.677,-19.226
0.336,-0.091,0.577,37.598,-6.714,-8.423
0.235,-0.116,1.044,60.425,-65.491,-12.085
0.007,-0.166,1.691,50.232,-93.445,-3.357
0.178,-0.176,1.119,4.333,7.690,0.732
0.085,-0.091,0.626,-22.034,70.740,5.371
0.176,-0.087,1.417,-16.052,-1.404,7.568
0.130,0.034,1.379,-5.432,-8.789,14.038
0.160,-0.089,0.815,5.066,43.518,-3.418
0.245,-0.121,0.589,-4.333,48.584,-1.770
0.269,-0.112,0.445,-43.152,29.968,-1.160
0.310,-0.029,0.440,-20.325,-0.061,5.615
0.258,0.008,0.598,1.038,-42.358,4.333
0.187,0.054,1.013,39.429,-104.004,2.502
-0.084,-0.098,2.098,49.438,-137.390,1.465
-0.205,0.016,1.637,-8.606,-34.973,6.836
0.080,-0.096,0.651,8.911,99.915,-2.014
0.194,-0.076,0.534,-44.739,61.157,-6.958
0.185,-0.058,0.695,10.559,14.587,-5.615
0.142,-0.020,0.990,48.462,-12.085,-1.221
0.122,-0.161,1.227,46.082,-15.015,-2.075
0.143,-0.153,1.039,10.315,9.033,-0.610
0.214,-0.141,0.800,7.141,31.677,1.404
0.238,-0.081,0.773,-9.460,20.386,2.014
0.176,-0.015,0.849,-2.930,-1.038,4.211
0.177,-0.134,1.010,14.099,-12.512,1.038
0.146,-0.068,1.013,0.488,-13.306,1.343
0.150,-0.010,1.111,-2.686,-13.672,4.395
0.092,-0.040,1.075,9.705,-5.432,2.930
0.104,-0.134,0.786,7.263,24.292,1.343
0.181,-0.123,1.308,-25.269,21.606,5.737
0.102,-0.001,1.261,-14.099,0.366,20.935
0.182,-0.024,1.032,-1.221,28.442,4.639
0.242,-0.115,0.565,9.766,45.105,-2.869
0.359,-0.175,0.536,-14.526,17.944,-6.287
0.303,-0.127,0.482,-24.902,5.127,0.549
0.275,-0.032,0.713,-9.399,-26.611,6.897
0.257,0.003,1.028,37.598,-81.970,5.615
0.142,-0.134,1.742,18.677,-107.788,4.150
0.010,0.007,1.439,-15.198,-53.223,11.414
-0.133,-0.039,0.840,10.925,56.030,5.066
0.155,-0.079,0.654,-2.869,46.997,-5.066
0.172,0.016,0.842,6.958,16.357,0.427
0.087,-0.070,1.019,36.621,-3.113,-0.732
0.107,-0.111,1.176,25.574,-4.944,-2.563
0.093,-0.110,0.998,11.597,22.339,-1.343
0.220,-0.056,0.954,10.132,31.555,0.061
0.168,-0.145,0.619,4.395,31.189,-2.625
-0.047,-0.063,0.655,-23.621,11.780,15.137
0.155,-0.021,2.365,-40.466,-65.247,31.067
0.169,0.007,2.175,-24.597,-33.569,25.330
0.104,0.025,1.608,16.724,129.456,-3.296
0.221,-0.205,0.453,81.726,175.964,-3.845
0.254,-0.073,0.291,-61.218,161.011,-15.869
0.232,-0.148,-0.043,-16.174,100.037,3.357
0.338,-0.161,-0.018,-34.058,68.604,-2.686
0.115,-0.122,-0.044,-40.649,5.920,0.305
0.170,-0.158,-0.071,-10.986,-22.217,19.592
0.440,-0.209,0.042,-61.646,-34.973,0.000
0.382,-0.218,0.251,3.296,-156.860,14.709
0.242,0.443,2.127,82.397,-265.442,47.424
-0.169,0.234,3.808,109.436,-261.780,44.128
-0.550,0.204,2.623,24.475,-64.575,28.442
0.052,-0.109,0.517,24.841,206.238,-4.883
0.278,-0.036,0.389,-115.784,144.043,-24.902
0.253,-0.156,0.190,24.658,22.217,-12.390
0.148,-0.004,0.598,21.484,7.935,0.977
0.005,-0.168,0.356,86.243,-9.338,6.226
0.337,-0.007,2.854,-27.588,-127.502,12.451
0.099,-0.002,2.997,-69.153,-54.688,1.587
0.058,0.042,1.791,24.231,139.587,5.432
0.289,-0.047,0.705,93.994,196.350,4.639
0.256,-0.062,0.387,33.020,154.846,-4.517
0.193,-0.061,0.055,-10.010,125.366,-2.075
0.166,-0.062,-0.000,-33.020,109.436,-5.920
0.199,-0.105,-0.053,-38.086,67.993,-11.597
0.219,-0.163,-0.111,-43.335,35.828,-11.963
0.292,-0.174,-0.076,-78.369,21.484,-8.728
0.359,-0.223,-0.075,-56.519,-30.945,-5.005
0.316,-0.166,0.136,-38.086,-100.891,7.324
0.229,-0.163,0.260,72.815,-217.773,28.870
0.210,0.034,2.700,147.156,-340.820,36.133
-0.374,0.228,4.000,21.606,-300.293,28.442
-0.376,0.128,1.965,18.555,34.424,23.376
0.162,-0.020,0.430,-34.302,268.433,-25.818
0.264,-0.148,0.068,-89.539,94.666,-19.409
0.311,-0.117,0.181,-2.930,25.024,-12.024
-0.010,-0.125,0.149,10.193,-13.916,-1.404
0.190,-0.028,0.630,19.409,-49.500,1.282
0.341,-0.274,1.360,108.215,-119.629,3.174
0.048,-0.030,2.177,42.358,-126.587,8.423
0.116,-0.105,1.145,12.756,46.875,4.395
-0.045,-0.098,0.486,-8.240,128.906,-1.526
0.253,-0.128,0.756,-26.978,24.475,2.075
0.169,-0.147,1.739,-1.648,-49.316,7.080
0.196,-0.027,1.288,5.615,7.446,4.578
0.238,-0.125,0.477,17.578,89.355,-1.587
0.240,-0.077,0.212,-49.500,59.937,1.892
0.243,-0.072,0.197,-42.480,23.132,0.183
0.332,-0.058,0.372,-19.653,-29.358,-0.671
0.316,0.009,0.804,38.940,-116.516,3.540
0.150,-0.095,2.139,75.317,-182.373,7.019
-0.134,0.042,2.028,-10.864,-113.220,7.446
-0.161,-0.034,0.913,9.888,85.999,0.671
0.099,-0.026,0.582,-15.503,78.735,-9.033
0.215,-0.083,0.715,6.042,16.235,-10.742
0.091,-0.129,1.123,48.218,-13.428,-4.944
0.162,-0.138,1.271,24.780,-4.150,1.038
0.090,-0.117,0.903,16.724,35.828,0.610
0.130,-0.104,0.791,10.376,41.687,1.282
0.277,-0.144,0.761,-0.366,24.414,-1.282
0.256,-0.108,0.847,-3.052,2.563,-0.488
0.175,-0.074,0.957,2.014,-9.338,4.395
0.196,-0.067,0.901,1.404,-6.958,3.601
0.156,-0.093,0.948,-0.854,-13.306,2.686
0.144,-0.089,1.101,-5.005,-20.020,2.808
0.078,0.029,1.845,8.789,103.455,5.920
0.179,-0.110,0.725,85.754,204.651,2.380
0.174,-0.038,0.290,-26.123,193.359,-10.498
0.237,-0.134,-0.079,-28.137,130.188,2.258
0.245,-0.124,-0.048,-23.560,74.524,-2.258
0.148,-0.133,-0.081,-38.940,50.110,-2.747
0.168,-0.106,-0.046,-14.404,-5.310,8.606
0.325,-0.183,-0.059,-57.617,3.906,-1.160
0.501,-0.270,0.025,-62.683,-56.763,-4.395
0.299,-0.278,0.075,37.659,-217.346,16.479
0.079,0.481,2.537,107.300,-261.353,47.913
-0.244,0.202,4.000,111.145,-303.894,46.570
-0.343,0.201,2.360,15.869,-31.433,31.799
0.195,-0.050,0.453,-6.714,266.907,-15.564
0.161,-0.121,0.132,-85.754,86.731,-15.259
0.118,-0.047,0.359,18.860,49.988,-9.094
0.075,-0.148,0.202,56.152,31.982,-4.333
0.148,-0.256,0.257,48.096,-67.749,6.409
0.440,-0.065,3.642,-58.533,-143.921,17.090
0.013,0.179,3.146,-20.874,-32.776,19.165
0.235,-0.113,0.926,79.895,253.723,-8.301
0.181,-0.041,0.327,-9.460,251.587,-19.104
0.208,-0.098,-0.072,-21.179,139.526,-1.160
0.135,-0.059,-0.020,3.845,95.459,-0.916
0.156,-0.063,-0.079,-25.879,71.289,-3.296
0.203,-0.138,-0.094,-40.344,44.250,-9.338
0.293,-0.157,-0.117,-75.317,31.433,-9.338
0.323,-0.212,-0.122,-78.003,-2.075,-5.493
0.397,-0.252,-0.016,-46.326,-78.674,2.319
0.279,-0.248,0.164,79.956,-247.620,25.513
-0.082,0.316,1.782,125.610,-304.443,43.091
-0.087,0.178,4.000,83.191,-302.673,38.208
-0.341,0.172,3.274,3.174,-145.081,34.668
0.118,-0.149,0.409,3.723,264.587,-10.925
0.186,-0.026,0.288,-126.038,155.640,-13.611
0.259,-0.118,0.159,2.869,39.185,-9.827
0.131,-0.124,0.146,-7.690,7.385,-2.747
0.014,-0.105,0.240,21.606,-36.133,4.395
0.135,-0.140,0.792,110.901,-80.994,6.104
0.175,-0.119,2.096,63.599,-109.680,12.756
0.060,0.011,2.315,-59.143,-23.010,8.850
0.243,-0.060,1.281,3.723,101.990,2.319
0.230,-0.102,0.650,37.842,96.497,1.953
0.229,-0.084,0.491,2.319,68.970,2.380
0.234,-0.103,0.312,-20.386,47.424,1.160
0.246,-0.117,0.132,-47.852,43.274,-0.549
0.286,-0.103,0.124,-91.614,41.016,-7.019
0.251,-0.155,0.086,-24.902,-45.105,3.052
0.412,0.027,0.901,43.030,-150.818,12.329
0.332,-0.255,1.992,133.484,-248.352,20.142
-0.296,0.180,2.833,10.315,-199.158,28.931
-0.228,0.052,1.315,13.550,108.948,17.334
0.031,0.058,0.495,-34.790,164.917,-16.479
0.204,-0.101,0.241,-55.847,57.983,-21.667
0.204,-0.132,0.518,11.780,5.798,-21.912
0.180,-0.078,0.906,65.552,-35.339,-10.376
0.108,-0.157,1.538,73.608,-49.683,-2.808
0.095,-0.195,1.274,19.348,0.244,-3.418
-0.068,-0.152,0.634,-5.371,74.341,0.061
0.319,-0.170,0.937,-24.780,29.968,10.376
0.398,-0.006,1.726,-31.311,-8.179,12.390
0.111,0.032,1.551,-10.986,20.813,3.723
0.264,-0.152,0.707,35.217,77.271,-1.770
0.214,-0.089,0.401,-30.884,87.463,-3.479
0.186,-0.108,0.112,-51.636,61.829,-0.793
0.221,-0.130,0.057,-43.762,21.240,-2.258
0.234,-0.132,0.128,-41.199,-16.174,-1.404
0.298,-0.059,0.614,16.846,-96.375,7.141
0.350,-0.271,1.287,131.836,-223.389,15.564
-0.250,0.129,3.281,16.113,-221.069,25.757
-0.248,0.093,1.618,2.197,54.260,25.940
0.031,0.023,0.444,-9.216,177.795,-3.357
0.185,-0.083,0.207,-70.435,78.735,-14.893
0.292,-0.115,0.438,5.493,17.151,-16.052
0.182,-0.062,0.831,52.246,-36.133,-6.042
0.108,-0.181,1.311,76.843,-47.791,-0.549
0.172,-0.151,1.509,21.729,-27.710,0.732
0.063,-0.132,0.840,15.747,35.645,4.395
-0.016,-0.128,0.488,-5.737,50.598,2.747
0.323,-0.097,1.206,-16.174,12.512,12.146
0.309,0.025,1.633,-30.029,-20.874,15.076
0.111,0.002,1.417,-2.625,22.156,1.343
0.232,-0.172,0.580,29.968,67.139,-0.610
0.244,-0.108,0.330,-62.439,81.848,-7.202
0.234,-0.146,0.082,-58.655,43.884,-3.540
0.259,-0.152,0.118,-40.222,2.075,0.427
0.360,-0.060,0.618,9.827,-79.712,5.859
0.292,-0.142,1.226,106.873,-189.819,15.869
-0.211,0.069,2.909,31.677,-199.829,24.170
-0.245,0.138,1.707,-0.977,14.954,26.245
0.036,0.000,0.529,1.221,162.720,-4.150
0.194,-0.055,0.309,-64.880,77.332,-11.658
0.248,-0.087,0.499,5.615,23.193,-14.587
0.213,-0.038,0.867,55.664,-29.724,-6.348
-0.000,-0.149,1.476,77.576,-41.992,-0.671
0.066,-0.149,1.218,22.156,3.296,4.333
0.246,-0.079,0.700,-12.024,64.026,4.761
0.262,-0.156,1.197,-25.574,17.395,-1.038
0.161,-0.024,1.321,-13.489,6.348,3.174
0.256,-0.133,0.745,9.827,32.227,2.563
0.228,-0.131,0.502,-23.071,43.823,-0.427
0.237,-0.086,0.382,-35.522,16.968,6.470
0.286,-0.046,0.457,-22.217,-11.230,5.676
0.227,-0.034,0.699,16.602,-64.148,3.357
0.183,-0.140,1.271,60.059,-123.840,5.493
-0.108,-0.032,2.143,4.333,-120.850,6.104
-0.071,-0.010,1.297,0.916,26.306,8.484
0.116,-0.051,0.616,-0.610,101.685,-2.808
0.204,-0.093,0.505,-33.386,46.265,-5.859
0.151,-0.049,0.730,21.912,5.554,-4.150
0.154,-0.104,1.027,52.795,-19.897,-1.099
0.042,-0.154,1.400,32.288,-20.752,-0.366
0.144,-0.144,0.950,18.127,31.921,2.686
-0.037,-0.132,0.575,-0.061,55.786,2.747
0.306,-0.126,1.309,-28.687,11.230,12.878
0.412,-0.010,1.694,-39.307,4.578,12.756
0.143,0.084,1.631,-2.625,18.494,3.296
0.224,-0.146,0.674,42.603,81.604,-4.333
0.201,-0.101,0.368,-22.217,98.389,-5.127
-0.391,0.208,2.344,-9.094,-33.020,28.503
0.003,-0.015,0.422,10.315,201.843,-2.808
0.147,-0.043,0.266,-70.984,100.708,-15.442
0.276,-0.099,0.394,6.104,30.151,-19.836
0.205,-0.125,0.656,36.072,-18.127,-13.733
0.149,-0.220,1.130,72.693,-48.035,-5.615
0.131,-0.225,1.524,24.719,-37.476,-1.709
0.203,-0.141,0.900,5.920,21.118,2.563
0.149,-0.044,0.771,-6.897,28.748,5.859
0.050,0.011,0.803,0.549,9.705,7.324
0.053,-0.137,0.822,19.958,2.686,2.625
0.271,-0.155,1.372,-11.169,-6.775,5.737
0.195,-0.022,1.242,-13.855,3.052,9.583
0.167,-0.085,0.837,2.441,31.128,-0.244
0.255,-0.118,0.704,6.348,24.109,1.404
0.216,-0.079,0.623,-7.080,10.437,3.479
0.241,-0.013,0.675,-11.475,-9.216,5.188
0.234,-0.043,0.750,5.432,-30.396,0.549
0.120,-0.089,1.107,15.564,-57.678,-3.357
0.037,-0.204,1.586,1.770,-70.557,-4.211
-0.005,-0.063,1.184,-10.193,-8.789,3.418
0.149,-0.089,0.778,6.958,33.325,6.531
0.191,-0.014,0.779,-2.625,19.409,4.211
0.139,-0.004,0.927,11.292,1.953,2.808
0.110,-0.123,1.142,23.865,-8.362,-0.305
0.125,-0.118,1.067,13.062,5.920,2.930
0.157,-0.090,0.876,11.536,27.527,2.991
0.193,-0.076,0.826,7.935,25.879,2.991
0.215,-0.090,0.873,4.395,10.803,2.625
0.172,-0.070,0.931,1.648,0.977,2.686
0.175,-0.075,0.940,2.380,-3.418,2.380
0.165,-0.082,0.916,2.686,-4.944,1.953
0.139,-0.093,0.937,0.244,-7.446,1.953
0.160,-0.073,0.963,-2.563,-7.080,1.465
0.148,-0.090,0.966,-0.977,-6.592,0.977
0.149,-0.087,0.970,-0.427,-6.104,1.709
0.132,-0.085,1.008,0.183,-4.822,2.075
0.141,-0.083,1.005,1.587,-0.671,2.319
0.150,-0.081,0.951,3.662,4.395,2.319
0.154,-0.088,0.937,5.310,5.371,2.197
0.155,-0.090,0.947,5.310,4.639,2.136
0.154,-0.088,0.947,4.761,3.967,2.319
0.157,-0.090,0.932,4.150,3.296,2.258
0.159,-0.083,0.926,2.991,1.648,2.258
0.165,-0.087,0.923,2.136,0.000,2.075
0.074,-0.046,1.063,0.854,-3.357,2.502
0.208,-0.118,1.082,12.329,9.033,3.235
0.040,-0.171,0.649,12.695,31.921,2.625
0.159,-0.097,1.484,-43.762,8.606,12.939
0.247,0.079,2.218,-43.091,-45.166,22.217
0.153,0.128,2.604,4.211,7.507,18.188
0.170,0.058,1.510,66.589,135.986,5.005
0.210,-0.165,0.224,56.702,236.450,-18.188
0.154,-0.035,0.070,-94.910,186.340,-11.353
0.181,-0.076,-0.098,15.686,92.773,-4.761
0.252,-0.129,-0.113,-66.284,83.008,-15.625
0.287,-0.172,-0.086,-82.703,47.363,-18.616
0.282,-0.211,-0.151,-40.466,5.127,-7.385
0.379,-0.171,-0.044,-71.411,-21.240,2.197
0.268,-0.186,0.249,2.136,-149.536,2.991
-0.002,-0.206,0.019,115.112,-305.054,37.109
0.007,0.059,3.108,109.680,-248.352,41.321
-0.387,0.082,4.000,44.189,-299.500,31.067
0.075,-0.102,1.085,15.564,155.823,1.282
0.219,0.042,0.538,-69.153,243.286,-15.015
0.233,-0.166,0.044,-21.790,38.269,-5.737
0.146,-0.060,0.208,-7.324,40.222,-1.038
0.047,-0.147,0.139,36.560,5.920,2.991
0.191,-0.077,0.797,63.171,-67.871,10.193
0.389,-0.028,2.901,2.930,-141.052,14.099
0.130,-0.010,2.348,-32.959,-25.208,3.906
0.180,-0.065,1.031,31.555,140.015,1.099
0.199,-0.069,0.409,21.118,146.545,2.136
0.197,-0.088,0.113,-46.204,88.501,-2.197
0.228,-0.108,0.023,-24.780,51.941,-2.747
0.216,-0.119,-0.017,-45.898,23.621,-3.540
0.292,-0.130,0.054,-68.359,-5.310,-4.028
0.285,-0.158,0.166,-2.014,-86.670,3.845
0.226,0.022,0.962,80.627,-218.872,15.747
-0.128,0.127,3.825,97.107,-297.119,28.503
-0.489,0.261,2.566,8.667,-81.116,39.307
-0.111,0.010,0.551,27.161,194.885,4.028
0.110,0.007,0.331,-77.881,124.817,-17.334
0.245,-0.107,0.306,-17.639,48.889,-23.987
0.296,-0.147,0.568,25.330,-6.836,-16.846
0.161,-0.066,1.034,73.669,-45.471,-5.554
0.160,-0.223,1.583,59.387,-46.448,-1.282
0.037,-0.105,1.127,8.301,1.099,3.784
-0.073,-0.054,0.714,-3.845,51.025,7.263
0.336,-0.135,0.856,-9.521,25.024,13.733
0.295,-0.007,1.715,-36.499,-4.150,10.742
0.216,-0.023,1.503,-12.878,13.123,3.479
0.205,-0.049,1.021,27.161,57.129,-0.793
0.265,-0.157,0.514,16.541,88.745,-4.883
0.132,-0.081,0.201,-69.946,78.735,-1.892
0.215,-0.100,0.051,-42.847,46.448,0.671
0.290,-0.158,0.016,-50.232,2.014,-5.920
0.214,-0.153,0.147,-37.109,-52.002,0.000
0.343,-0.067,0.808,80.566,-175.659,13.916
-0.050,0.091,3.612,111.511,-282.410,20.935
-0.283,0.166,2.268,-11.902,-93.811,35.217
-0.096,-0.034,0.634,18.738,191.162,4.150
0.100,0.018,0.338,-73.608,126.831,-11.047
0.259,-0.109,0.314,-13.794,46.265,-18.555
0.281,-0.122,0.595,31.250,-14.893,-12.817
0.149,-0.047,1.064,69.824,-45.105,-2.563
0.126,-0.207,1.568,52.490,-42.297,-0.366
0.256,-0.110,1.038,6.531,8.057,3.723
0.100,-0.033,0.787,0.732,30.029,6.592
-0.070,-0.045,0.648,-0.732,24.719,6.409
0.025,-0.129,0.790,2.991,12.146,12.939
0.405,0.011,2.459,-59.448,-55.603,18.127
0.121,0.038,2.163,-20.874,-11.536,14.221
0.082,0.064,1.770,32.349,98.022,1.404
0.196,-0.122,0.830,90.637,166.626,-0.305
0.218,-0.032,0.328,-24.597,193.909,-11.841
0.184,-0.095,-0.042,-48.706,141.296,-6.470
0.214,-0.131,-0.137,-11.108,80.750,-5.554
0.248,-0.132,-0.049,-92.163,69.031,-16.479
-0.219,0.104,4.000,96.436,-317.078,35.278
-0.288,0.123,2.589,8.789,-58.472,21.729
0.150,-0.137,0.363,-3.845,271.545,-15.991
0.183,-0.085,0.217,-116.577,124.146,-12.878
0.256,-0.129,0.165,24.414,29.175,-6.042
0.185,-0.118,0.174,-8.179,13.306,0.427
0.136,-0.021,0.713,31.921,-35.767,4.639
0.181,-0.224,1.483,124.939,-111.694,10.559
0.163,0.041,2.680,-34.912,-90.515,18.677
0.188,-0.008,1.935,-31.311,43.396,8.057
0.226,0.031,1.352,26.062,106.079,3.967
0.297,-0.108,0.706,64.392,110.535,-1.465
0.207,-0.107,0.455,12.756,94.177,-6.409
0.186,-0.093,0.089,-38.391,85.449,-1.770
0.168,-0.060,0.010,-50.659,31.799,-6.653
0.278,-0.170,-0.020,-71.167,-7.446,-12.329
0.389,-0.177,0.147,-42.358,-68.237,-4.822
0.118,-0.207,0.217,58.411,-212.646,11.536
0.075,0.136,3.735,123.291,-312.866,32.349
-0.537,0.240,3.102,22.217,-167.297,36.987
-0.118,-0.011,0.803,34.180,163.757,8.667
0.114,0.007,0.452,-61.462,153.748,-21.179
0.238,-0.160,0.200,-32.227,58.594,-23.437
0.314,-0.145,0.485,5.615,9.155,-13.794
0.172,-0.068,0.960,71.716,-43.762,-2.808
0.113,-0.198,1.527,73.425,-46.265,1.526
0.027,-0.143,1.121,2.686,1.831,5.249
0.094,-0.096,1.009,-14.832,39.734,12.756
0.336,-0.030,1.358,-24.841,30.212,11.047
0.362,-0.012,1.495,-14.832,23.865,6.042
0.224,-0.042,1.087,25.879,37.903,0.122
0.187,-0.149,0.605,29.602,73.242,-6.287
0.184,-0.108,0.277,-48.340,67.139,-2.380
0.212,-0.088,0.078,-52.917,51.270,0.244
0.225,-0.104,0.031,-47.485,4.639,1.221
0.274,-0.142,0.112,-39.124,-44.983,-2.563
0.274,-0.071,0.692,34.058,-147.705,4.456
0.017,0.029,3.302,121.216,-271.301,20.325
-0.371,0.167,2.480,-1.709,-122.742,29.297
-0.051,-0.047,0.687,19.043,152.649,5.066
0.133,-0.019,0.457,-52.124,115.417,-12.329
0.250,-0.123,0.444,-3.235,39.429,-14.343
0.232,-0.072,0.706,30.823,-4.333,-5.493
0.151,-0.042,1.036,55.664,-20.508,-0.732
0.146,-0.199,1.367,40.283,-22.766,-2.197
0.193,-0.110,1.023,7.446,9.033,2.014
0.193,-0.122,0.768,-1.465,26.794,3.906
0.179,-0.025,0.750,-13.611,14.648,5.676
0.200,-0.021,0.787,-0.549,-4.822,3.235
0.138,-0.123,1.002,13.062,-21.790,-0.793
0.132,-0.163,1.211,0.427,-32.349,-1.709
0.042,-0.069,1.180,1.892,-19.165,6.714
0.035,-0.030,0.920,13.733,32.288,2.197
0.128,-0.196,0.747,15.808,38.818,2.502
0.253,-0.080,1.122,-22.583,25.818,6.653
0.236,-0.034,1.112,-14.526,7.019,11.902
0.125,-0.030,1.052,3.479,16.479,3.113
0.252,-0.136,0.531,15.930,31.860,0.000
0.209,-0.108,0.458,-17.090,15.564,0.977
0.234,-0.101,0.460,-14.099,-8.240,2.563
0.229,-0.044,0.687,-2.197,-40.161,2.197
0.251,-0.128,1.473,29.602,-102.173,1.587
0.065,-0.082,1.824,-19.226,-101.685,2.502
-0.132,0.028,1.242,-10.193,3.906,10.864
-0.000,-0.031,0.704,14.832,53.955,4.700
0.167,-0.085,0.729,12.512,25.696,-3.357
0.191,-0.040,0.909,17.700,9.399,-1.648
0.103,-0.086,1.117,22.766,-4.333,0.793
0.095,-0.088,1.056,13.794,8.179,1.892
0.046,-0.103,0.962,16.296,28.809,1.404
-0.056,-0.132,0.545,16.907,50.720,-0.305
0.209,-0.235,1.217,-15.686,17.395,11.658
0.304,0.052,3.299,-76.233,-84.167,18.921
0.119,0.224,2.834,-31.128,53.040,13.672
0.192,0.059,1.535,101.074,195.557,-0.671
0.145,-0.180,0.315,102.966,267.212,-20.569
0.133,-0.036,0.094,-38.696,209.351,-8.667
0.131,-0.052,-0.070,15.869,154.358,-6.836
0.177,-0.088,-0.147,-22.644,116.272,-9.644
0.227,-0.148,-0.129,-50.720,92.896,-21.484
0.264,-0.177,-0.169,-44.128,65.369,-15.991
0.308,-0.228,-0.164,-55.725,35.278,-11.658
0.333,-0.243,-0.187,-88.989,-0.183,-6.165
0.325,-0.263,-0.178,-80.933,-60.608,7.324
0.288,-0.211,0.265,-44.250,-138.428,17.578
0.182,-0.329,0.024,125.977,-327.209,31.860
-0.100,0.571,2.803,67.932,-301.147,46.692
-0.170,0.329,4.000,88.684,-429.565,55.359
-0.277,0.144,2.806,24.658,-133.301,52.490
0.025,-0.253,0.307,-8.423,342.224,-24.841
0.044,-0.058,0.309,-108.459,164.429,-18.982
0.094,-0.144,0.012,57.678,56.091,1.221
0.152,-0.049,0.138,-29.236,53.589,12.024
0.225,-0.124,0.164,78.003,-69.885,14.404
0.482,-0.003,3.289,29.907,-132.874,10.864
0.180,0.089,2.559,0.366,-101.135,23.193
0.112,-0.097,0.793,46.021,196.594,-1.099
0.145,0.044,0.342,-38.391,191.223,-8.911
0.117,-0.103,-0.021,-18.738,73.547,-10.742
0.183,-0.088,0.004,-29.663,51.392,-6.836
0.248,-0.120,-0.054,-59.448,35.278,-8.728
0.279,-0.133,-0.042,-86.426,12.268,-9.216
0.331,-0.203,0.074,-34.729,-70.190,-4.456
0.135,-0.225,0.105,58.777,-228.943,12.329
0.038,-0.046,2.165,79.590,-222.900,27.466
-0.198,-0.030,4.000,80.566,-293.335,27.161
-0.076,0.014,1.765,10.132,5.859,14.404
0.071,-0.100,0.479,1.831,210.571,-6.775
0.141,-0.075,0.239,-74.280,93.201,-0.854
0.247,-0.044,0.403,3.540,45.349,0.916
0.173,-0.041,0.685,45.654,-19.836,3.906
0.211,-0.005,1.078,71.228,-47.729,3.906
0.181,-0.183,1.427,46.021,-39.124,-0.916
0.164,-0.102,1.002,1.221,-0.366,1.709
0.181,-0.135,0.763,-4.211,14.160,3.540
0.220,-0.046,0.738,-16.357,10.132,5.493
0.083,-0.057,0.942,11.719,-22.400,4.395
-0.015,-0.014,1.394,27.405,-25.024,2.808
0.025,-0.148,0.730,11.292,30.334,1.465
-0.239,0.121,1.939,-14.465,-72.876,20.203
-0.072,-0.038,0.682,19.775,132.812,3.418
0.136,-0.010,0.485,-39.429,88.074,-7.263
0.241,-0.080,0.576,3.174,28.687,-12.329
0.169,-0.053,0.838,41.260,-11.108,-5.859
0.080,-0.130,1.172,56.702,-0.977,-0.427
0.124,-0.129,0.766,15.259,37.720,1.953
-0.065,-0.075,0.577,-9.888,40.771,5.920
0.317,-0.162,1.380,-23.437,-2.197,10.681
0.344,-0.036,1.631,-35.156,3.723,2.869
0.108,-0.008,1.336,-1.709,33.813,1.587
0.237,-0.162,0.656,35.217,65.308,-0.427
0.266,-0.145,0.414,-35.950,77.942,-7.141
0.200,-0.129,0.113,-70.129,60.608,-0.793
0.263,-0.143,0.039,-41.748,14.893,4.089
0.260,-0.153,0.146,-32.104,-38.452,1.770
0.292,-0.051,0.750,52.368,-144.287,14.832
0.118,0.093,3.141,115.112,-248.657,27.466
-0.328,0.190,2.449,-6.836,-119.019,34.607
-0.042,-0.034,0.731,22.217,165.466,6.836
0.112,0.007,0.362,-63.538,131.714,-11.902
0.230,-0.119,0.297,-27.344,55.664,-20.020
0.311,-0.141,0.571,32.898,-8.484,-12.329
0.171,-0.052,1.028,67.017,-43.640,-2.380
0.129,-0.189,1.561,51.636,-46.021,0.671
0.204,-0.110,1.139,5.371,2.502,3.601
0.183,-0.115,0.752,-2.625,37.842,5.371
0.180,-0.022,0.710,-18.982,17.212,6.836
0.122,0.000,0.876,22.278,-11.658,6.531
0.046,-0.058,1.103,20.691,-12.146,0.671
0.015,-0.167,1.070,-7.996,5.310,3.296
0.266,-0.073,1.507,-32.166,18.433,10.010
0.307,-0.021,1.221,-17.212,29.968,8.423
0.128,0.016,1.169,8.606,42.236,1.709
0.253,-0.171,0.525,32.349,57.922,-0.488
0.192,-0.105,0.312,-44.312,60.425,-3.113
0.205,-0.126,0.084,-42.175,29.175,0.610
0.268,-0.120,0.124,-58.533,8.362,-3.113
0.333,-0.083,0.569,-7.019,-61.584,-1.221
0.381,-0.188,1.193,112.061,-197.815,10.132
-0.182,0.049,3.062,21.301,-204.651,17.212
-0.263,0.129,1.752,-5.371,-2.563,23.010
-0.021,-0.031,0.527,8.484,162.170,-3.601
0.263,-0.102,0.534,5.859,22.034,-14.282
0.198,-0.061,0.862,49.744,-26.917,-6.104
0.073,-0.150,1.325,62.805,-33.081,-0.610
0.131,-0.153,1.355,13.977,-9.705,2.197
0.199,-0.141,0.778,10.315,38.208,3.174
0.192,-0.068,0.734,-5.676,26.062,3.052
-0.019,-0.020,0.799,1.465,12.573,5.188
-0.026,-0.113,0.864,7.751,1.953,10.559
0.374,-0.069,1.955,-41.931,-14.404,16.174
0.275,0.022,1.765,-22.156,-3.357,14.954
0.206,0.025,1.539,13.977,59.082,2.258
0.253,-0.170,0.702,57.007,108.521,-1.404
0.184,-0.045,0.309,-49.377,134.888,-6.226
0.187,-0.108,0.028,-55.298,89.111,-3.113
0.239,-0.155,-0.089,-22.766,34.668,-3.174
0.266,-0.131,0.059,-90.698,16.907,-6.897
0.305,-0.246,-0.056,-12.024,-65.796,3.235
0.234,-0.159,0.257,21.057,-161.804,17.273
0.317,-0.274,2.010,109.192,-253.662,30.823
-0.386,0.243,3.550,45.654,-226.074,35.706
-0.236,0.102,1.417,39.429,74.158,18.311
0.090,-0.017,0.508,-12.817,181.335,-15.625
0.250,-0.156,0.190,-73.608,83.618,-22.949
0.313,-0.155,0.357,-0.427,24.292,-16.052
0.136,-0.106,0.754,52.734,-27.283,-4.089
0.194,-0.198,1.424,83.862,-61.951,3.052
0.194,-0.102,1.389,8.789,-28.748,3.296
0.210,-0.119,0.792,2.808,26.611,5.310
0.125,-0.036,0.785,-3.113,14.404,5.737
0.047,-0.032,0.894,4.333,9.644,2.930
-0.047,-0.082,0.934,13.184,6.592,10.376
0.321,-0.155,1.540,-19.287,-2.747,11.841
0.227,0.019,1.603,-35.156,16.052,11.169
0.202,-0.044,1.562,-1.160,34.180,1.587
0.275,-0.095,0.873,41.504,66.223,-0.427
0.234,-0.106,0.393,-9.705,104.248,-7.202
0.178,-0.093,0.086,-64.636,77.393,-1.465
0.205,-0.134,-0.023,-26.550,28.137,0.000
0.301,-0.141,0.053,-72.754,2.075,-6.653
0.323,-0.193,0.103,-37.842,-63.599,0.000
0.290,-0.051,0.817,76.965,-194.458,14.160
-0.185,0.119,3.745,105.896,-297.852,25.208
-0.375,0.208,2.302,4.028,-84.900,39.490
-0.130,-0.009,0.590,19.104,195.129,-2.625
0.070,0.012,0.319,-70.618,123.901,-15.381
0.216,-0.122,0.333,-7.202,43.884,-22.888
0.313,-0.153,0.609,31.555,-11.719,-16.968
0.146,-0.124,1.063,72.449,-40.894,-4.639
0.142,-0.211,1.563,40.710,-39.429,1.160
0.236,-0.132,0.997,6.470,15.198,3.418
0.215,-0.104,0.675,-6.287,36.621,5.371
0.104,-0.015,0.754,-1.526,3.113,8.179
0.132,0.003,0.933,20.386,-2.808,3.296
0.041,-0.164,0.985,-1.587,0.366,0.916
0.196,-0.129,1.366,-15.320,-0.122,6.531
0.254,-0.027,1.144,-12.024,14.587,10.315
0.224,-0.071,0.934,0.427,30.518,1.587
0.267,-0.140,0.666,12.573,24.902,0.549
0.221,-0.111,0.560,-9.460,15.991,2.136
0.235,-0.033,0.606,-15.503,-7.690,4.822
0.239,-0.056,0.640,-1.526,-31.860,2.075
0.158,-0.025,1.035,13.184,-68.054,-0.977
0.068,-0.159,1.732,7.141,-97.290,-2.808
-0.090,-0.044,1.417,-13.855,-32.166,4.395
0.096,-0.080,0.752,10.437,51.208,6.470
0.169,-0.053,0.722,3.418,32.654,1.587
0.148,0.008,0.895,13.733,11.902,1.831
0.087,-0.087,1.047,28.748,2.991,-0.854
0.118,-0.110,1.065,16.418,4.089,0.305
0.106,-0.102,0.984,10.254,20.935,0.977
0.211,-0.117,0.867,10.803,28.137,1.099
0.287,-0.086,0.826,0.061,21.057,-0.610
0.133,-0.053,0.844,4.150,-1.526,2.625
-0.011,-0.076,0.975,-0.793,4.456,3.357
0.228,-0.208,1.155,-12.634,4.944,6.775
0.266,-0.007,1.505,-31.677,12.268,13.550
-0.276,0.156,2.581,-9.155,-164.551,27.039
-0.085,-0.008,1.080,17.212,109.070,16.724
0.044,0.035,0.454,-28.320,145.874,-7.080
0.196,-0.093,0.342,-28.992,55.298,-12.573
0.249,-0.104,0.618,25.879,2.258,-11.780
0.195,-0.066,0.970,62.866,-29.541,-4.211
0.113,-0.197,1.477,43.640,-31.433,-0.916
0.188,-0.136,1.078,6.531,9.827,1.465
0.208,-0.060,0.783,2.380,35.828,3.479
-0.054,-0.034,0.713,-7.324,24.597,3.418
-0.101,-0.136,0.813,21.179,2.808,10.376
0.326,-0.045,2.277,-48.645,-30.273,19.226
0.207,0.072,2.095,-40.100,-10.193,16.846
0.203,0.082,1.815,17.517,84.106,0.977
0.290,-0.089,1.078,79.529,136.963,-1.648
0.214,-0.092,0.313,9.399,180.664,-7.385
0.157,-0.092,0.012,-70.313,149.536,-5.554
0.216,-0.118,-0.109,-2.686,79.773,-2.136
0.276,-0.138,-0.061,-67.383,57.922,-10.498
0.269,-0.164,-0.083,-70.007,20.691,-9.766
0.251,-0.166,-0.114,-42.114,-11.597,3.235
0.393,-0.191,0.021,-53.650,-65.063,0.854
0.201,-0.150,0.238,46.082,-219.666,21.423
-0.066,0.200,2.575,152.527,-306.091,42.480
-0.280,0.174,4.000,59.753,-289.185,34.058
-0.269,0.098,2.118,19.836,1.099,16.052
0.170,-0.153,0.350,-5.798,242.676,-22.827
0.282,-0.131,0.207,-116.272,116.943,-21.423
0.246,-0.155,0.141,2.014,44.250,-9.399
0.052,-0.157,0.197,20.142,-0.183,1.831
0.013,-0.148,0.677,82.336,-55.786,7.751
0.234,-0.036,2.284,37.476,-122.559,16.296
0.132,0.096,2.948,-62.927,-51.636,22.522
0.251,0.088,1.917,10.071,92.834,6.165
0.286,0.060,1.126,72.327,162.170,4.944
0.286,-0.127,0.547,77.454,153.992,-9.827
0.082,-0.063,0.299,-3.113,111.816,-7.263
0.128,-0.043,0.033,-36.377,114.319,-3.296
0.184,-0.068,-0.064,-41.626,79.407,-5.615
0.233,-0.135,-0.094,-61.523,50.354,-14.954
0.232,-0.184,-0.099,-78.308,32.532,-16.785
0.324,-0.227,-0.083,-63.843,-20.508,-7.385
0.345,-0.226,0.068,-50.598,-92.163,2.441
0.221,-0.267,0.123,73.303,-235.046,26.123
0.089,0.143,2.812,112.305,-298.950,40.833
-0.267,0.196,4.000,63.477,-316.223,39.001
-0.301,0.091,2.096,19.165,15.991,19.043
0.039,-0.033,0.408,-27.649,271.851,-20.203
0.213,-0.158,0.093,-99.670,98.938,-19.775
0.303,-0.159,0.166,4.089,25.879,-13.062
0.102,-0.163,0.159,1.160,-6.714,-1.160
0.282,-0.016,0.864,31.128,-53.955,5.127
0.234,-0.170,1.742,125.122,-133.850,9.094
0.062,-0.015,1.939,23.865,-84.839,12.451
-0.057,-0.067,1.101,2.380,74.036,9.766
0.264,-0.117,0.747,-10.376,90.027,0.122
0.266,-0.065,1.348,-19.104,10.742,4.517
0.198,0.006,1.541,6.775,-1.892,9.766
0.254,-0.166,0.578,30.029,70.923,-0.732
0.182,-0.073,0.298,-47.241,81.238,-1.038
0.182,-0.095,0.080,-39.673,42.053,2.441
0.240,-0.118,0.046,-58.350,13.367,-2.625
0.340,-0.116,0.277,-42.969,-37.537,-2.380
0.335,-0.059,0.806,73.242,-168.884,8.789
-0.040,0.067,3.174,92.346,-255.737,20.325
-0.279,0.153,2.126,-8.240,-90.820,30.090
-0.101,-0.018,0.680,21.484,158.752,4.944
0.069,0.010,0.442,-54.504,108.826,-11.108
0.234,-0.103,0.487,-8.423,39.795,-19.470
0.243,-0.112,0.728,34.668,-9.644,-12.451
0.141,-0.087,1.047,62.317,-23.254,-3.723
0.110,-0.189,1.398,36.560,-20.813,-0.916
0.207,-0.151,0.977,8.484,17.090,1.648
0.241,-0.128,0.768,-5.615,33.569,1.953
0.168,-0.025,0.746,-16.052,11.658,5.005
0.190,-0.055,0.817,9.888,-8.301,4.639
0.151,-0.073,1.103,18.799,-25.085,3.906
0.109,-0.068,1.121,2.014,-12.268,1.526
0.137,-0.048,0.981,2.502,10.437,1.709
0.170,-0.138,0.931,4.883,11.597,1.648
0.176,-0.048,0.972,-0.793,11.047,3.845
0.194,-0.120,0.843,4.639,9.277,2.197
0.183,-0.071,0.878,2.502,2.258,1.953
0.181,-0.060,0.882,2.197,-3.845,2.258
0.153,-0.158,0.954,5.371,-8.850,0.488
0.163,-0.083,0.901,-3.052,-10.925,2.014
0.161,-0.096,0.988,-6.104,-14.282,3.174
0.140,-0.061,1.083,-5.676,-16.602,2.563
0.118,-0.085,1.011,-2.686,-8.972,2.441
0.140,-0.059,0.991,2.014,-1.282,2.197
0.149,-0.071,0.963,5.920,5.127,2.197
0.146,-0.089,0.943,8.850,6.165,1.831
0.146,-0.083,0.957,7.751,7.324,1.953
0.146,-0.086,0.966,6.409,7.935,2.136
0.163,-0.075,0.911,5.432,9.644,2.075
0.166,-0.083,0.896,4.089,7.141,2.197
0.171,-0.081,0.900,2.808,2.563,2.197
0.152,-0.079,0.971,0.427,-2.563,2.380
0.146,-0.065,1.000,0.305,-3.967,2.441
0.143,-0.077,0.962,2.197,-2.075,2.136
0.148,-0.081,0.946,2.808,-0.793,2.258
0.171,-0.070,0.982,2.197,-1.221,2.441
0.127,-0.055,0.993,5.981,-1.831,2.991
0.100,-0.049,1.046,13.550,13.367,1.465
0.107,-0.252,0.828,14.954,26.917,-2.014
0.113,-0.120,1.128,-20.691,24.597,3.845
0.217,-0.052,1.135,-15.503,8.484,13.794
0.190,-0.002,1.212,18.860,44.006,0.122
0.214,-0.058,0.350,-42.969,33.691,4.639
0.222,-0.044,0.426,-13.794,-12.085,4.150
0.277,-0.005,0.723,2.991,-52.429,0.000
0.112,-0.158,1.408,35.828,-111.511,-1.160
0.101,-0.105,1.918,-11.047,-112.549,-0.916
-0.141,0.010,1.319,-5.066,1.343,12.390
0.040,-0.057,0.615,17.578,71.411,3.967
0.151,-0.046,0.661,-0.427,32.776,-1.648
0.171,-0.026,0.881,27.771,8.118,-0.916
0.124,-0.097,1.120,31.128,-3.540,0.488
0.115,-0.108,1.060,13.306,10.254,0.854
-0.237,0.162,1.776,1.099,11.780,24.780
-0.018,-0.013,0.455,3.845,184.570,-6.775
0.134,-0.063,0.263,-62.134,78.735,-12.329
0.298,-0.127,0.487,12.878,20.142,-17.700
0.243,-0.067,0.868,52.979,-32.043,-7.141
0.082,-0.176,1.455,65.308,-43.823,0.427
0.021,-0.118,1.271,10.986,3.052,2.502
-0.057,-0.134,0.730,-0.061,52.917,6.042
0.288,-0.079,1.344,-26.489,27.405,15.930
0.426,0.019,1.810,-37.537,17.334,17.944
0.239,0.019,1.644,3.967,23.926,3.052
0.108,-0.106,0.792,50.903,92.957,-6.470
0.237,-0.104,0.435,11.047,106.689,-1.099
0.217,-0.128,0.204,-33.936,76.843,-2.930
0.241,-0.125,0.023,-45.105,57.678,-3.113
0.258,-0.123,0.009,-54.016,20.264,-0.061
0.225,-0.142,0.015,-31.067,-27.649,1.770
0.237,-0.137,0.117,-34.180,-70.374,4.944
0.272,0.039,1.025,51.514,-168.579,13.550
0.175,0.101,3.869,149.902,-319.275,26.428
-0.321,0.168,2.720,-33.936,-145.386,27.283
-0.109,-0.095,0.601,17.334,216.064,-4.211
0.089,0.004,0.351,-79.956,155.090,-16.174
0.246,-0.162,0.138,-9.338,46.997,-19.043
0.316,-0.176,0.196,-10.681,9.277,-8.728
0.136,-0.072,0.748,47.974,-48.401,0.732
0.143,-0.157,1.736,90.027,-95.337,4.211
0.133,-0.058,1.636,17.395,-52.368,7.568
0.125,-0.141,0.860,8.911,47.363,3.174
0.175,-0.084,0.620,-31.433,50.171,3.174
0.155,-0.029,0.603,-18.433,14.771,4.578
0.174,-0.035,0.851,40.344,-29.358,5.859
0.065,-0.133,1.352,36.499,-24.597,1.282
-0.110,-0.177,1.060,-0.244,22.034,6.958
0.240,-0.019,1.521,-41.931,34.424,13.062
0.326,-0.001,1.734,-20.508,16.785,17.273
0.227,0.049,1.646,20.447,32.959,5.798
0.264,-0.184,0.551,58.411,115.112,-6.897
0.104,-0.012,0.275,-57.129,139.893,-7.751
0.184,-0.090,0.006,-20.691,68.298,-0.610
0.226,-0.115,-0.068,-32.166,40.405,-4.395
0.323,-0.156,0.006,-98.755,23.865,-14.587
0.315,-0.222,-0.008,-25.391,-65.857,-3.479
0.256,-0.157,0.194,5.432,-144.043,11.841
0.382,-0.273,1.816,93.567,-259.644,30.396
-0.316,0.215,3.699,74.036,-274.353,34.424
-0.343,0.098,1.631,30.090,71.533,19.958
-0.025,0.020,0.451,-15.198,202.881,-15.808
0.204,-0.166,0.146,-71.411,91.187,-28.381
0.313,-0.199,0.250,-5.798,27.161,-22.888
0.179,-0.147,0.659,40.100,-20.447,-7.202
0.153,-0.240,1.339,93.384,-70.801,3.723
0.164,-0.034,1.644,15.442,-48.096,6.226
0.030,-0.119,0.890,12.329,32.959,6.531
0.076,-0.143,0.414,2.441,56.580,7.812
0.366,-0.173,1.284,-12.024,9.888,10.193
0.204,0.016,1.683,-35.461,-16.235,14.038
0.117,-0.009,1.454,-2.808,25.452,3.784
0.278,-0.108,0.724,33.813,67.810,0.244
0.231,-0.105,0.413,-22.766,88.135,-4.822
0.176,-0.111,0.139,-59.753,60.852,-1.953
0.230,-0.137,0.011,-29.236,22.583,0.122
0.326,-0.123,0.125,-53.406,-15.381,-0.671
0.280,-0.046,0.644,8.057,-106.079,4.761
0.287,-0.300,1.623,136.353,-231.750,19.043
-0.285,0.134,2.959,0.732,-199.036,21.118
-0.188,0.077,1.446,13.611,69.458,19.653
-0.021,0.028,0.453,-16.296,166.931,-10.437
0.190,-0.110,0.320,-50.171,59.326,-15.991
0.304,-0.132,0.606,24.536,1.587,-16.052
0.159,-0.065,0.968,56.824,-30.090,-4.028
0.106,-0.190,1.425,50.720,-30.090,0.366
0.183,-0.099,1.129,7.935,8.118,2.625
0.202,-0.119,0.795,4.028,32.593,3.479
0.153,-0.041,0.785,-8.972,15.686,3.967
0.157,-0.021,0.863,1.221,3.845,2.319
0.147,-0.133,0.991,9.888,-3.662,-1.526
0.166,-0.080,1.106,-0.610,-6.958,1.099
0.183,-0.073,0.938,1.831,2.808,4.211
0.199,-0.149,0.822,6.592,3.540,1.770
0.195,-0.042,0.845,-7.141,-3.784,4.944
0.144,-0.013,0.909,-2.930,-10.742,3.967
0.118,-0.161,1.015,11.169,-15.808,-1.465
0.139,-0.114,1.074,1.953,-12.268,-1.160
0.155,-0.070,1.019,-2.930,-0.732,3.845
0.145,-0.090,0.983,1.770,0.977,2.441
0.156,-0.074,0.933,3.540,4.822,2.563
0.158,-0.083,0.934,5.493,5.127,2.258
0.158,-0.080,0.943,5.859,3.601,2.075
0.158,-0.087,0.951,5.371,2.441,2.014
0.160,-0.081,0.954,3.723,1.404,2.197
0.157,-0.073,0.932,2.930,1.343,2.075
0.155,-0.076,0.915,2.258,0.549,2.258
0.150,-0.073,0.946,1.587,-1.282,2.136
0.151,-0.069,0.985,0.793,-2.014,2.441
0.194,-0.079,0.949,1.343,-1.160,2.380
0.050,-0.021,1.090,2.441,-6.226,4.272
0.033,-0.007,1.023,18.066,9.888,6.287
0.093,-0.162,0.760,15.137,30.151,2.808
0.153,-0.147,1.114,-18.738,26.306,4.028
0.283,-0.046,1.129,-15.747,9.033,9.338
0.202,-0.004,0.981,0.366,17.029,4.883
0.206,-0.117,0.564,14.038,25.513,-0.122
0.186,-0.131,0.512,-7.324,4.517,0.549
0.228,-0.059,0.600,-13.000,-14.099,1.892
0.228,-0.011,0.820,5.066,-43.213,1.404
0.087,-0.154,1.362,15.198,-83.252,-0.366
0.082,-0.093,1.670,-22.644,-64.148,2.014
-0.105,0.011,1.106,-4.639,3.845,8.850
0.095,-0.076,0.763,20.386,33.691,4.456
0.209,-0.094,0.783,16.479,25.696,-0.061
0.152,0.026,0.917,8.850,13.977,2.930
0.099,-0.109,0.990,22.827,5.249,-1.282
0.080,-0.104,1.075,10.803,8.118,-1.282
0.119,-0.106,1.052,8.911,17.639,1.404
0.262,-0.089,0.926,7.812,28.137,0.854
0.134,-0.093,0.734,1.831,22.827,-1.892
-0.107,-0.142,0.769,1.770,10.620,7.324
0.362,-0.185,1.469,-25.330,-1.831,14.832
-0.593,0.216,2.667,14.954,-98.633,31.372
-0.081,-0.056,0.602,38.452,177.002,-0.366
0.126,-0.015,0.398,-75.378,148.499,-25.146
0.329,-0.199,0.190,-26.306,53.894,-26.855
0.349,-0.143,0.476,-0.244,0.977,-12.146
0.136,-0.060,0.949,76.843,-57.983,-0.793
0.129,-0.180,1.627,68.542,-69.946,6.104
-0.095,-0.148,1.191,-7.751,3.296,13.367
0.213,-0.029,1.595,-40.283,47.302,11.902
0.293,0.053,1.827,-27.222,19.409,15.991
0.138,0.070,1.802,15.869,39.307,4.211
0.257,-0.047,1.109,67.139,105.042,-2.625
0.255,-0.124,0.380,22.888,149.658,-10.010
0.160,-0.073,0.077,-66.223,131.287,-5.981
0.210,-0.103,-0.057,-7.996,75.806,-3.357
0.258,-0.138,-0.052,-51.819,43.701,-10.864
0.254,-0.151,-0.051,-81.909,16.296,-11.169
0.319,-0.195,-0.074,-47.119,-23.010,-2.747
0.281,-0.162,0.191,-31.555,-97.229,2.014
0.088,-0.192,0.171,94.177,-251.831,25.696
0.028,0.250,3.976,117.920,-309.692,34.790
-0.590,0.205,3.370,8.423,-176.575,29.846
-0.012,-0.094,0.861,33.325,162.598,0.916
0.231,-0.053,0.392,-73.242,194.092,-27.527
0.315,-0.207,0.098,-54.871,67.139,-18.311
0.056,-0.145,0.196,13.977,17.029,-0.366
0.079,-0.080,0.601,71.106,-26.550,8.972
0.239,-0.157,1.659,75.439,-96.069,11.841
0.234,0.108,2.409,-44.495,-83.984,19.348
0.171,0.010,1.673,-7.812,43.396,8.240
0.237,-0.136,0.685,32.959,119.934,2.930
0.195,-0.046,0.317,-43.518,104.614,0.977
0.201,-0.102,0.083,-47.302,62.500,-3.113
0.247,-0.125,0.002,-29.236,17.029,-1.038
0.319,-0.089,0.227,-39.734,-27.344,0.854
0.253,-0.035,0.585,33.569,-116.882,7.202
0.194,-0.194,1.586,108.521,-203.735,14.404
-0.159,0.066,2.881,16.357,-186.646,14.832
-0.192,0.037,1.462,14.893,41.260,14.282
0.030,-0.004,0.541,-6.104,149.048,-6.226
0.199,-0.092,0.394,-49.194,69.946,-14.465
0.268,-0.117,0.580,18.555,15.869,-13.184
0.165,-0.068,0.868,44.067,-17.334,-5.249
0.097,-0.169,1.293,56.335,-26.184,-2.686
0.208,-0.107,1.248,15.625,-11.108,0.854
-0.118,-0.090,0.805,13.000,37.170,3.784
0.014,-0.185,0.676,-5.432,29.297,8.301
0.330,-0.084,2.006,-45.410,-12.329,15.930
0.316,0.052,1.905,-21.545,-8.911,19.897
0.040,0.054,1.585,21.912,61.035,1.770
0.214,-0.163,0.669,65.308,127.930,1.770
0.167,-0.017,0.295,-69.580,143.494,-3.113
0.192,-0.124,-0.005,-52.246,107.483,-4.028
0.274,-0.154,-0.088,-22.766,42.236,-2.014
0.223,-0.142,0.067,-69.214,12.329,-3.601
0.271,-0.228,-0.067,-12.451,-62.500,9.705
0.303,-0.155,0.173,-12.207,-111.084,15.869
0.088,0.284,1.532,61.584,-219.482,29.419
-0.120,0.214,3.769,122.559,-270.691,39.490
-0.501,0.152,2.471,28.137,-86.182,28.198
0.029,-0.124,0.676,27.649,183.716,-7.996
0.224,-0.052,0.394,-97.778,149.048,-24.536
0.325,-0.181,0.200,-22.949,48.706,-18.311
0.220,-0.113,0.454,11.780,-1.465,-3.845
0.182,-0.067,0.983,87.830,-67.627,4.517
0.089,-0.100,1.559,69.336,-67.505,9.277
-0.157,-0.089,1.335,-11.475,7.324,14.832
0.321,-0.079,1.930,-43.335,44.373,6.775
0.335,0.057,1.690,-18.677,29.663,13.489
0.087,0.081,1.583,27.527,57.739,2.869
0.249,-0.171,0.715,67.322,118.103,-5.127
0.250,-0.099,0.291,-40.222,136.047,-10.864
0.201,-0.091,0.047,-44.861,109.314,-4.089
0.236,-0.138,-0.093,-13.916,54.810,-0.793
0.284,-0.163,-0.020,-79.346,29.663,-10.925
0.270,-0.161,-0.048,-58.105,-12.695,-0.549
0.360,-0.200,-0.019,-28.687,-64.697,4.944
0.198,-0.127,0.322,10.010,-162.964,14.832
0.377,-0.264,2.246,154.053,-303.650,38.330
-0.292,0.255,3.985,43.396,-279.724,30.701
-0.329,0.109,1.608,31.555,78.552,19.592
0.027,-0.003,0.423,-30.396,227.783,-20.264
0.251,-0.181,0.079,-92.346,98.999,-26.794
0.338,-0.167,0.197,-4.150,27.039,-14.771
0.114,-0.161,0.208,14.648,-16.174,-1.343
0.133,-0.026,0.976,63.110,-76.111,4.211
0.176,-0.035,1.974,94.604,-113.220,8.850
0.013,-0.071,1.469,4.578,-20.447,12.085
-0.091,-0.081,0.973,-10.681,91.675,2.502
0.279,-0.079,1.198,-18.494,58.044,2.380
0.182,-0.010,1.588,-6.653,16.357,10.132
0.288,-0.040,1.091,32.593,42.053,2.930
0.259,-0.139,0.520,28.076,88.623,-5.066
0.172,-0.077,0.262,-35.645,69.885,-0.671
0.173,-0.063,0.071,-33.875,48.035,0.427
0.195,-0.100,0.018,-57.251,16.479,-3.479
0.268,-0.131,0.056,-57.068,-20.630,-5.737
0.296,-0.177,0.198,-15.503,-87.708,-3.052
0.290,-0.244,1.169,109.436,-236.633,9.827
-0.265,0.150,3.772,41.992,-281.433,24.902
-0.343,0.124,1.902,11.230,32.776,27.771
-0.027,-0.003,0.401,-8.911,205.261,-11.230
0.134,-0.115,0.170,-68.359,83.374,-16.418
0.309,-0.123,0.461,9.705,18.555,-16.541
0.206,-0.099,0.792,46.875,-29.663,-6.775
0.096,-0.182,1.334,71.899,-52.307,1.526
0.127,-0.113,1.486,20.142,-29.419,3.906
0.195,-0.131,0.850,8.789,31.799,4.578
0.153,-0.076,0.727,-9.705,31.189,4.883
0.179,-0.014,0.768,-6.531,10.986,6.287
0.205,-0.040,0.859,11.108,-5.066,1.953
0.161,-0.120,0.953,13.123,-16.235,-1.831
0.117,-0.127,1.071,3.113,-24.353,-1.160
0.101,-0.051,1.021,-3.479,-13.062,3.052
0.137,-0.090,0.960,0.671,-1.831,1.953
0.166,-0.063,0.947,0.977,2.136,2.441
0.139,-0.083,1.003,2.258,-0.793,2.197
0.132,-0.067,1.016,3.235,0.305,2.380
0.142,-0.081,0.948,5.798,5.066,2.136
0.116,0.154,2.177,-4.517,52.551,12.817
0.262,0.014,1.389,74.280,130.066,0.122
0.183,-0.131,0.314,52.612,213.257,-10.376
0.166,-0.043,0.022,-54.626,159.363,-0.977
0.186,-0.083,-0.103,9.277,93.811,-2.930
0.252,-0.110,-0.053,-63.538,77.332,-16.541
0.274,-0.168,-0.097,-65.796,41.321,-16.296
0.255,-0.176,-0.119,-49.500,7.202,-5.798
0.304,-0.177,-0.100,-75.745,-21.606,-1.404
0.391,-0.263,0.024,-28.564,-110.474,2.747
0.141,-0.196,0.130,94.543,-296.143,28.320
0.219,0.065,3.765,130.005,-298.462,39.185
-0.395,0.163,3.987,17.883,-274.963,37.292
-0.143,-0.009,1.275,18.005,119.873,8.606
0.189,-0.048,0.375,-45.105,244.690,-24.902
0.290,-0.195,0.041,-79.224,80.139,-15.259
0.208,-0.133,0.142,2.136,29.602,-3.723
0.012,-0.127,0.199,36.133,-16.663,7.141
0.082,-0.239,0.779,99.854,-79.041,10.315
0.157,-0.099,2.453,24.048,-131.226,12.207
0.253,0.078,2.189,-52.917,-2.930,15.442
0.160,0.005,1.326,22.705,89.294,7.507
0.216,-0.114,0.460,39.368,127.563,1.221
0.185,-0.063,0.173,-50.232,88.257,0.916
0.200,-0.102,0.067,-34.851,54.932,-4.944
0.270,-0.123,-0.012,-45.654,26.611,-4.150
0.347,-0.146,0.071,-59.021,-14.221,-3.906
0.365,-0.080,0.487,15.015,-122.864,4.333
0.248,-0.217,1.616,123.108,-245.605,21.118
-0.261,0.165,3.318,28.625,-244.019,28.931
-0.310,0.113,1.699,22.827,44.922,23.926
-0.038,0.013,0.485,-7.324,191.895,-11.658
0.174,-0.088,0.222,-76.111,88.501,-19.836
0.307,-0.139,0.432,9.827,23.437,-7.629
0.059,-0.142,1.414,74.463,-51.208,0.366
0.066,-0.131,1.428,26.489,-28.198,2.014
0.066,-0.095,0.781,2.441,56.519,7.141
0.231,-0.100,0.854,-12.146,37.048,12.512
0.193,-0.070,1.222,-16.968,-0.854,3.967
0.174,-0.074,1.044,-2.441,13.916,0.977
0.246,-0.171,0.687,7.996,28.931,2.136
0.251,-0.151,0.501,-26.855,24.414,5.066
0.294,-0.130,0.437,-33.508,1.587,3.235
0.268,-0.053,0.556,-15.808,-36.499,8.728
0.115,0.015,1.058,41.504,-94.543,13.916
-0.070,0.005,2.075,29.968,-122.375,13.184
0.017,0.019,1.450,-2.258,-18.372,11.108
0.117,-0.083,0.666,10.681,89.661,-1.099
0.167,-0.053,0.606,-27.344,52.307,-2.258
0.111,-0.070,0.689,16.174,21.545,-2.014
0.176,-0.025,0.870,26.855,0.610,-0.244
0.099,-0.110,1.140,38.879,-12.573,-2.930
0.154,-0.150,1.222,11.902,-8.911,-0.916
0.183,-0.124,0.877,7.507,24.170,0.427
0.234,-0.102,0.757,-3.479,26.367,2.319
0.182,-0.008,0.787,-9.644,4.333,4.395
0.186,-0.047,0.905,7.996,-10.376,2.136
0.156,-0.115,1.083,5.127,-19.470,-0.488
0.087,-0.009,1.081,-0.244,-17.700,4.089
0.030,-0.089,1.014,7.202,0.000,0.488
0.193,-0.092,0.989,10.437,23.499,1.953
0.224,-0.208,0.827,5.310,34.668,-1.038
0.016,0.004,1.198,-24.048,20.447,6.348
0.302,-0.086,1.064,-2.563,9.338,8.545
0.232,-0.029,0.934,2.563,19.897,4.211
0.204,-0.142,0.617,14.404,20.142,1.953
0.236,-0.111,0.517,-13.428,7.690,2.686
0.203,-0.003,0.651,-13.306,-16.479,5.066
0.251,0.019,0.880,13.184,-49.316,1.587
0.162,-0.188,1.276,18.616,-78.064,-3.479
0.083,-0.100,1.595,-19.043,-60.364,-1.465
-0.109,-0.021,0.959,-1.648,9.583,8.606
0.116,-0.092,0.754,13.611,22.705,0.427
0.155,-0.053,0.986,9.888,7.080,0.977
0.110,-0.039,1.082,10.559,5.066,2.686
0.145,-0.119,0.976,20.203,16.174,0.244
0.123,-0.089,0.913,15.930,23.804,1.343
0.044,-0.090,0.952,12.268,21.790,1.831
0.217,-0.094,0.854,7.812,21.667,2.625
0.291,-0.105,0.800,-2.197,14.343,-1.953
0.124,-0.059,1.052,-3.235,-6.165,2.441
0.164,-0.051,0.986,11.108,-16.296,6.958
-0.081,-0.103,0.953,2.563,15.686,1.648
0.156,-0.241,1.084,-0.366,10.498,7.996
0.298,-0.045,1.820,-49.194,3.296,15.930
0.345,0.021,1.816,-22.522,19.470,19.165
0.332,0.026,1.665,35.034,57.922,4.578
0.213,-0.174,0.581,69.275,148.560,-11.414
0.135,-0.029,0.205,-32.776,157.043,-5.798
0.197,-0.053,0.001,-22.034,91.553,-0.793
0.212,-0.100,-0.078,-36.499,54.077,-5.798
0.276,-0.147,-0.029,-79.529,27.771,-15.442
0.280,-0.202,-0.091,-46.265,-13.550,-8.179
0.374,-0.208,0.040,-61.707,-57.617,-3.418
0.141,-0.143,0.280,22.461,-188.110,13.306
0.280,-0.214,2.731,145.996,-315.308,38.025
-0.373,0.236,3.896,31.799,-257.996,35.828
-0.283,0.099,1.577,37.109,68.970,19.714
