aX,aY,aZ,gX,gY,gZ
-0.305,-0.234,0.790,128.479,-17.883,-8.606
-0.120,-0.249,1.551,-29.480,-25.330,-16.785
0.027,0.086,0.911,-29.541,-22.339,15.442
-0.024,-0.034,0.589,-1.953,11.780,0.549
-0.077,-0.118,0.887,20.264,2.563,-3.967
-0.071,-0.018,1.264,18.433,-13.306,4.089
-0.087,-0.065,1.340,0.061,26.062,-1.953
-0.039,0.016,1.223,-27.466,38.818,2.625
-0.011,-0.001,1.161,-41.077,54.199,2.747
0.067,0.027,0.664,-18.921,43.091,2.991
0.033,0.002,0.523,-3.357,19.958,1.465
0.027,0.024,0.618,4.272,-3.113,2.747
0.019,-0.002,0.634,10.864,-13.367,2.563
-0.001,-0.005,0.803,13.794,-22.888,2.197
-0.016,0.058,1.415,16.907,-30.884,3.235
-0.050,-0.039,1.195,24.048,-21.057,2.258
-0.043,-0.024,1.222,7.446,-4.456,1.648
-0.022,-0.002,1.090,-3.418,4.700,2.747
-0.015,-0.003,0.963,-4.639,8.972,2.808
-0.006,0.007,0.907,-3.601,11.658,2.441
-0.001,0.003,0.805,-2.563,11.353,2.014
-0.001,0.000,0.806,-0.244,6.653,1.892
-0.006,0.001,0.921,3.113,-0.977,2.014
-0.021,-0.001,1.024,7.080,-6.409,2.258
-0.028,-0.003,1.062,7.141,-6.836,2.258
-0.025,-0.004,1.008,4.639,-3.601,2.319
-0.032,-0.021,1.009,2.747,-0.061,2.319
-0.073,0.013,1.505,-2.319,5.188,2.991
-0.088,0.018,2.118,-7.629,23.987,4.700
-0.174,-0.291,2.208,-20.813,45.654,7.874
-0.079,0.243,2.241,-93.933,75.134,9.766
-0.110,0.076,1.541,-4.272,122.009,-2.625
-0.036,0.077,0.968,-0.183,167.664,-13.184
-0.062,-0.067,-0.585,21.179,194.275,-18.188
0.084,-0.100,-0.576,32.471,128.296,-13.733
0.078,-0.016,-0.008,-5.920,23.865,3.357
0.063,-0.063,-0.115,-39.124,37.354,8.850
0.116,-0.032,-0.296,-52.063,51.514,0.366
0.087,-0.149,-0.570,-32.104,17.029,2.808
0.055,-0.031,-0.337,5.249,-69.702,17.517
0.059,0.005,-0.118,18.921,-117.432,22.766
0.016,0.029,0.550,25.879,-174.927,28.198
-0.042,0.136,1.204,11.169,-205.383,28.870
-0.169,0.594,2.976,154.297,-246.399,30.151
-0.302,-0.091,0.213,300.781,-18.738,5.615
-0.331,0.016,0.615,-13.733,-3.357,-30.090
-0.042,0.104,1.896,-60.608,-99.182,-10.132
0.034,0.020,0.276,-15.808,24.597,5.737
-0.078,-0.276,0.319,6.226,40.222,-13.062
-0.083,-0.152,0.899,32.288,-44.373,13.855
-0.098,-0.071,1.394,16.357,-5.310,3.052
-0.046,-0.093,1.303,-23.560,29.297,5.798
0.010,0.105,1.228,-40.283,50.598,4.578
-0.031,-0.005,1.311,-46.631,65.247,3.174
0.085,0.036,0.540,-24.963,64.453,2.991
0.071,0.008,0.510,-14.771,46.936,0.610
0.056,0.021,0.365,3.540,7.690,2.197
0.039,-0.014,0.366,12.146,-14.648,1.953
0.038,0.011,0.776,8.911,-31.433,2.197
-0.009,0.010,1.095,20.935,-46.997,2.441
-0.037,0.022,1.540,32.776,-46.204,2.686
-0.077,-0.072,1.353,31.311,-29.358,2.502
-0.043,-0.040,1.231,3.906,-3.845,2.319
-0.030,-0.016,1.085,-8.484,8.423,3.113
-0.015,-0.007,0.966,-8.057,15.442,2.930
-0.005,-0.003,0.920,-7.263,20.142,2.625
-0.034,0.000,1.193,-10.254,23.987,2.686
-0.044,-0.037,1.541,-9.216,30.273,3.967
-0.004,-0.005,1.748,-7.812,38.330,6.287
-0.048,-0.073,1.475,-1.770,52.429,4.150
0.044,0.121,0.979,-22.400,71.411,1.770
0.043,0.004,0.381,5.127,81.543,-3.418
0.082,-0.006,0.002,19.531,69.275,-3.418
0.052,-0.058,-0.040,-3.418,6.226,0.183
0.051,-0.012,0.077,-13.855,-20.142,2.625
0.062,-0.008,0.300,-18.066,-43.152,4.761
0.026,0.019,0.487,-17.944,-66.589,4.883
0.024,0.045,0.957,-10.925,-88.989,4.089
-0.126,0.117,3.185,62.256,-155.884,10.620
-0.227,-0.073,1.455,131.897,-126.709,7.996
-0.125,-0.266,0.811,0.183,25.574,-24.292
-0.011,0.135,1.368,-26.855,-28.992,18.433
-0.020,-0.046,0.651,-10.010,5.493,7.019
-0.050,-0.048,0.716,7.141,11.841,-1.160
-0.064,-0.001,1.328,5.859,-4.578,5.127
-0.032,0.005,1.075,-5.432,21.484,1.404
-0.049,-0.017,1.209,-25.146,35.706,2.380
0.023,0.004,1.013,-26.855,46.326,2.747
0.051,-0.001,0.759,-10.620,29.724,3.418
0.031,0.011,0.668,0.305,8.362,2.014
0.016,0.005,0.737,6.775,-7.324,2.747
0.016,-0.001,0.750,11.475,-12.878,2.380
-0.002,-0.010,0.871,11.780,-16.907,1.953
-0.017,0.014,1.262,12.146,-18.921,2.258
-0.033,-0.033,1.163,14.954,-12.329,2.075
-0.027,-0.018,1.167,3.357,-0.854,1.953
-0.015,-0.007,1.052,-2.441,5.981,2.563
-0.008,-0.006,0.948,-2.930,8.057,2.808
-0.003,0.001,0.903,-1.404,9.033,2.625
-0.001,-0.002,0.816,-0.122,7.935,2.014
-0.003,-0.003,0.849,1.465,3.540,1.831
-0.010,-0.007,0.932,3.967,-2.014,1.953
-0.022,-0.008,1.030,6.042,-5.798,2.136
-0.027,-0.010,1.047,6.104,-5.249,2.197
-0.024,-0.009,1.007,4.089,-2.319,2.258
-0.022,-0.008,0.990,2.380,1.038,2.258
-0.019,-0.010,0.978,1.770,2.686,2.258
-0.031,-0.011,1.079,0.427,4.089,2.441
-0.061,-0.002,1.378,-2.563,9.583,3.174
-0.078,-0.020,1.741,-4.333,23.254,4.883
-0.051,-0.025,1.920,-10.254,44.189,6.348
-0.055,-0.046,1.738,-25.146,68.909,5.615
0.016,0.112,1.125,-55.359,93.262,2.319
0.007,0.002,0.406,20.996,111.694,-5.859
0.088,-0.106,-0.110,25.391,104.797,-8.057
0.118,-0.035,-0.236,15.991,62.317,-3.235
0.093,-0.043,-0.139,-1.770,20.874,1.892
0.096,-0.009,-0.217,-15.686,-0.732,2.808
0.093,-0.015,-0.175,-22.583,-22.156,3.235
-0.337,-0.229,0.754,146.851,-33.020,-8.728
-0.181,-0.603,1.112,-15.320,-3.662,-27.527
0.041,0.191,1.412,-29.602,-57.190,22.583
-0.013,-0.038,0.604,-18.982,20.630,5.798
-0.056,-0.119,0.545,6.958,23.132,-6.104
-0.059,0.050,1.516,14.465,-18.311,7.080
-0.073,-0.085,1.183,2.319,19.958,0.244
-0.045,0.007,1.268,-24.414,37.720,1.892
-0.016,-0.010,1.163,-39.368,54.199,2.869
0.067,0.025,0.639,-17.212,41.992,3.296
0.034,0.002,0.547,-2.380,19.043,1.221
0.018,0.006,0.689,5.615,-6.226,3.052
0.015,-0.007,0.704,11.475,-13.794,2.502
0.001,-0.003,0.812,13.184,-20.142,2.136
-0.028,-0.007,1.249,13.306,-24.963,2.441
-0.048,-0.032,1.195,19.592,-21.729,2.686
-0.048,-0.023,1.258,8.850,-5.432,1.587
-0.029,-0.012,1.086,-1.038,2.991,2.686
-0.022,-0.009,0.996,-3.723,8.057,2.991
-0.011,-0.000,0.927,-3.113,10.925,2.747
-0.004,-0.002,0.817,-2.014,11.353,2.380
-0.002,-0.003,0.801,-0.793,8.179,1.953
-0.003,-0.004,0.866,2.319,0.793,2.075
-0.013,-0.004,1.035,5.615,-5.310,2.258
-0.043,-0.024,1.193,6.287,-6.531,2.441
-0.085,-0.004,1.521,1.160,2.441,3.662
-0.089,-0.013,1.863,-3.784,25.269,5.005
-0.059,-0.038,1.740,-10.254,49.133,6.531
-0.036,0.170,1.603,-32.593,66.467,6.470
0.039,0.046,0.635,-34.302,94.727,0.183
0.052,-0.038,0.163,11.292,102.844,-6.165
0.083,-0.024,-0.005,15.381,63.965,-2.136
0.092,-0.096,-0.077,5.981,31.128,-0.061
0.115,0.009,-0.041,-8.606,6.348,0.977
0.082,-0.027,0.035,-11.719,-23.010,3.967
0.054,-0.007,0.280,-13.062,-51.758,5.371
0.030,0.013,0.506,-10.864,-80.750,7.629
0.041,0.094,1.155,-4.883,-101.257,6.348
-0.153,0.545,3.064,93.262,-168.640,12.329
-0.263,-0.184,1.228,127.625,-76.965,-4.272
-0.114,-0.143,1.052,-6.714,6.042,-18.921
-0.005,0.097,1.278,-20.691,-28.625,17.456
-0.017,-0.033,0.636,-14.771,17.578,3.296
-0.050,-0.124,0.709,2.502,18.921,-2.380
-0.045,0.024,1.301,4.761,-6.775,8.301
-0.042,0.008,1.103,-8.179,23.621,0.793
-0.041,-0.019,1.144,-24.170,36.316,1.709
0.031,0.029,0.954,-24.170,41.626,2.563
0.018,-0.008,0.724,-6.653,20.020,3.052
0.005,0.013,0.684,3.174,-0.244,2.991
-0.001,0.005,0.771,8.728,-9.705,2.869
-0.002,0.004,0.796,11.414,-13.306,2.380
-0.027,-0.007,0.965,10.620,-15.564,1.648
-0.046,-0.014,1.100,1.465,1.099,2.563
-0.023,-0.003,1.045,-2.502,6.409,2.930
-0.007,-0.009,0.940,-2.563,8.606,3.113
-0.031,-0.006,1.131,-3.784,10.742,2.625
-0.089,0.043,1.899,-8.484,18.250,4.395
-0.128,-0.207,2.480,-14.709,37.537,8.179
-0.114,0.339,2.467,-93.933,71.228,10.315
-0.108,0.129,1.724,-23.743,125.671,-1.587
-0.062,-0.038,1.229,-3.479,173.157,-11.658
-0.062,-0.080,0.170,9.827,179.871,-12.024
0.061,-0.159,-0.940,28.809,191.101,-16.235
0.058,-0.087,-0.221,1.770,90.820,1.221
0.081,0.048,0.063,-15.564,4.578,8.606
0.069,-0.042,0.016,-30.762,56.091,5.432
0.079,-0.281,-0.557,-28.503,69.641,-2.258
0.064,-0.098,-0.436,4.944,-11.414,7.019
0.043,-0.109,-0.257,15.259,-90.759,21.301
0.054,-0.122,0.027,16.174,-126.282,25.269
0.096,-0.005,0.225,14.099,-164.612,32.837
-0.019,0.126,0.824,5.127,-188.354,33.936
-0.050,0.439,2.770,5.798,-213.196,33.386
-0.014,0.795,0.846,270.874,-225.342,38.330
-0.397,-0.246,0.013,112.488,68.604,-18.311
-0.161,-0.847,1.544,-73.181,-80.139,-30.457
0.119,0.168,0.937,-31.006,-70.007,3.052
-0.005,-0.172,-0.009,6.958,43.945,-5.005
-0.068,0.062,0.882,21.423,-10.254,1.404
-0.121,-0.103,1.129,31.799,3.540,1.709
-0.103,-0.264,1.173,2.869,-10.925,3.723
-0.061,-0.102,1.567,-27.100,15.076,8.789
0.025,0.155,1.314,-47.485,62.073,3.967
-0.050,-0.015,1.234,-60.669,80.994,3.235
0.096,0.056,0.467,-38.452,88.379,2.014
0.110,0.005,0.385,-13.794,62.012,-0.244
0.070,0.015,0.316,12.146,3.845,2.747
0.032,0.003,0.474,18.311,-24.048,2.686
0.021,-0.025,0.506,9.583,-31.067,2.136
0.012,0.019,0.954,9.338,-42.725,2.686
-0.035,-0.017,1.325,27.161,-55.908,3.296
-0.073,0.000,1.633,41.138,-47.668,2.563
-0.074,-0.080,1.342,23.804,-22.156,2.319
-0.066,-0.026,1.452,-7.935,2.380,3.357
-0.061,0.003,1.426,-13.123,21.667,4.028
-0.073,-0.031,1.658,-12.939,43.640,5.188
-0.025,0.012,1.665,-19.775,66.772,5.432
-0.037,0.066,1.469,-23.193,87.402,3.113
0.020,-0.003,0.791,-3.845,95.642,-0.488
0.044,-0.020,0.442,16.174,84.778,-2.075
0.097,0.009,0.095,20.264,71.716,-1.404
0.103,-0.016,-0.082,8.911,52.429,-0.427
0.103,-0.031,-0.146,-3.967,22.888,0.183
0.104,-0.008,-0.109,-10.071,-5.859,1.160
0.073,-0.014,0.039,-8.179,-38.574,2.808
0.034,-0.014,0.318,-6.226,-69.519,4.700
0.010,0.015,0.579,-13.306,-92.041,5.249
0.041,0.086,1.268,-13.489,-109.741,4.089
-0.219,0.664,3.896,91.736,-191.589,14.587
-0.295,-0.237,0.583,115.906,-26.062,-13.306
-0.242,-0.821,0.900,-2.258,14.832,-35.156
0.064,0.322,1.611,-26.733,-85.632,35.217
-0.014,-0.019,0.607,-14.282,9.460,12.512
-0.059,-0.122,0.627,7.141,21.423,-4.150
-0.067,-0.008,1.381,8.789,-10.498,5.798
-0.077,-0.079,1.240,-2.747,21.118,0.854
-0.024,0.025,1.163,-25.330,38.635,2.686
-0.015,-0.003,1.251,-35.645,52.063,3.235
-0.197,0.012,1.025,208.740,-147.339,12.939
-0.247,-0.303,0.557,30.212,39.124,-26.917
-0.137,-0.347,1.522,-35.095,-63.293,-4.578
0.054,0.076,0.990,-17.944,-23.499,14.282
-0.041,-0.112,0.352,-4.272,35.889,-5.981
-0.046,0.079,1.133,14.282,-4.333,1.038
-0.083,-0.063,1.282,14.404,-14.526,8.850
-0.056,-0.002,1.353,-17.578,36.865,-0.244
-0.064,-0.037,1.286,-37.231,50.049,3.296
0.031,0.056,0.927,-35.034,55.847,3.418
0.034,-0.027,0.555,-17.334,47.607,0.916
0.025,-0.003,0.525,8.362,-1.709,2.686
0.019,-0.007,0.554,9.277,-10.742,1.892
0.000,0.029,0.983,9.766,-26.062,2.563
-0.026,-0.012,1.047,18.494,-29.175,1.587
-0.051,-0.008,1.395,22.583,-25.635,1.465
-0.051,-0.034,1.259,16.174,-13.794,2.014
-0.034,-0.021,1.147,0.610,-0.732,2.930
-0.030,-0.021,1.049,-4.395,8.789,2.991
-0.049,-0.001,1.256,-6.653,16.174,3.418
-0.059,-0.034,1.301,-7.385,30.273,3.906
-0.030,-0.000,1.589,-16.663,46.204,5.371
-0.012,0.054,1.738,-12.573,56.030,5.432
-0.023,0.009,1.280,3.296,72.998,1.587
0.018,0.018,0.798,5.920,84.717,-1.648
0.044,-0.018,0.361,16.296,75.378,-1.465
0.102,-0.032,-0.044,16.907,71.533,-2.319
0.100,-0.016,-0.224,5.249,52.124,-0.244
0.092,0.006,-0.017,-3.235,-1.770,2.808
0.087,-0.039,0.166,-7.324,-34.668,2.441
0.032,-0.014,0.297,-7.446,-50.232,2.625
0.031,-0.010,0.508,-9.155,-74.219,4.822
0.005,0.041,0.620,-13.611,-90.149,4.395
-0.125,-0.042,2.544,16.418,-129.822,6.348
-0.143,0.215,2.326,126.282,-160.278,11.902
-0.186,-0.307,0.659,48.218,25.085,-29.846
-0.077,-0.017,1.190,-23.010,-28.442,1.221
0.031,0.058,1.016,-11.108,-22.827,20.081
-0.045,-0.109,0.429,-2.930,27.954,-3.601
-0.046,0.038,1.184,8.728,-5.615,4.211
-0.074,-0.063,1.199,3.296,-2.197,7.263
-0.016,0.054,1.212,-20.569,37.292,0.122
-0.051,-0.048,1.260,-33.203,47.302,3.296
0.043,0.014,0.818,-24.719,48.523,3.723
0.033,0.009,0.733,-11.292,29.541,3.479
0.033,0.012,0.581,-0.854,7.019,3.296
0.026,-0.004,0.597,7.935,-4.700,2.380
0.010,-0.009,0.699,10.620,-14.954,2.014
-0.008,0.010,0.992,12.451,-23.193,1.770
-0.036,-0.031,1.184,16.541,-22.583,0.977
-0.054,-0.029,1.280,18.433,-18.738,1.709
-0.045,-0.025,1.237,8.484,-6.409,1.831
-0.035,-0.025,1.084,-1.465,2.869,2.991
-0.040,-0.002,1.189,-5.127,10.742,3.296
-0.050,-0.018,1.248,-5.554,20.874,3.723
-0.042,-0.024,1.323,-10.864,36.377,4.211
-0.016,0.030,1.583,-17.700,47.668,4.761
-0.016,0.007,1.380,-5.371,58.594,3.296
0.012,0.033,1.079,7.141,67.017,1.648
0.031,-0.011,0.589,14.526,65.918,-0.183
0.061,-0.007,0.308,17.883,54.871,-0.122
0.093,-0.023,0.035,12.878,49.377,-0.488
0.080,0.002,-0.039,2.136,30.762,1.404
0.079,0.006,0.123,-7.263,-10.742,1.770
0.065,-0.028,0.283,-9.521,-37.537,0.732
0.045,0.001,0.475,-9.521,-57.739,5.188
0.015,0.019,0.550,-12.207,-73.608,4.150
-0.038,-0.064,1.490,-3.845,-94.543,3.357
-0.043,0.367,3.600,81.421,-158.386,12.390
-0.204,-0.201,1.269,86.731,-48.096,-5.432
-0.106,-0.131,1.081,-7.446,6.775,-8.789
-0.001,0.039,1.121,-15.259,-22.705,13.733
-0.034,-0.100,0.529,-5.432,18.555,-0.549
-0.046,0.004,1.171,7.629,-1.587,3.296
-0.065,-0.065,1.075,-0.366,5.920,2.930
-0.031,0.034,1.229,-14.160,28.137,0.977
-0.047,-0.035,1.176,-26.794,40.100,2.869
0.016,-0.003,0.958,-22.888,44.434,2.930
0.033,0.006,0.781,-10.254,28.442,3.418
0.026,0.013,0.619,-2.197,9.338,2.991
0.020,0.000,0.634,5.554,-2.808,2.441
0.010,-0.007,0.716,10.010,-12.451,2.197
-0.004,0.007,0.942,11.841,-19.348,1.709
-0.029,-0.019,1.095,13.977,-19.958,1.282
-0.046,-0.019,1.277,15.869,-16.724,1.465
-0.043,-0.025,1.226,9.827,-7.080,1.953
-0.030,-0.018,1.088,-0.244,1.404,2.930
-0.019,-0.006,1.014,-3.174,8.240,2.930
-0.017,-0.010,0.939,-2.869,12.146,2.808
-0.033,-0.009,1.102,-5.005,15.747,2.686
-0.075,-0.026,1.482,-7.080,22.339,4.089
-0.067,-0.017,1.962,-10.315,37.781,6.714
-0.078,-0.097,1.912,-23.682,51.392,8.911
-0.047,0.125,1.586,-68.542,82.397,4.761
-0.016,0.002,0.603,0.061,125.610,-4.333
0.047,-0.120,-0.065,14.893,125.244,-7.141
0.029,-0.100,-0.311,14.343,93.994,-1.099
0.033,-0.091,-0.055,-0.061,28.687,5.493
0.087,-0.029,0.058,-6.165,-10.925,10.010
0.125,0.016,-0.078,-11.353,-6.104,9.094
0.142,-0.015,-0.079,-4.456,-28.198,7.874
0.099,-0.035,0.270,3.540,-82.336,14.771
0.001,0.054,0.641,-7.568,-109.802,19.165
0.126,0.281,1.243,-9.644,-123.840,15.930
-0.230,0.641,2.337,130.920,-208.740,20.264
-0.301,-0.182,0.893,157.837,-43.884,0.305
-0.161,-0.137,0.706,-6.775,14.709,-18.921
-0.003,-0.039,1.500,-28.442,-69.763,2.869
0.005,-0.020,0.620,-18.738,13.733,1.343
-0.053,-0.087,0.506,4.578,25.208,-7.935
-0.052,0.033,1.388,14.893,-19.836,8.545
-0.098,-0.107,1.247,4.028,7.751,3.662
-0.016,0.062,1.237,-22.949,39.246,1.587
-0.044,-0.019,1.341,-40.955,55.786,2.747
0.037,0.008,0.684,-26.001,53.528,2.747
0.034,0.014,0.651,-14.160,35.034,1.831
0.028,0.033,0.634,2.380,1.465,5.249
0.026,-0.006,0.507,9.888,-1.465,1.587
0.011,-0.011,0.606,7.080,-13.733,2.075
-0.264,-0.269,0.680,85.510,23.315,-6.592
-0.111,0.033,1.319,-27.039,-28.442,-1.770
0.021,-0.149,1.097,-22.888,-39.612,-1.343
-0.039,-0.040,0.495,-12.085,27.161,-2.625
-0.045,-0.046,0.829,8.972,12.329,-1.953
-0.067,0.001,1.401,11.841,-17.822,4.700
-0.065,-0.027,1.290,-8.240,26.550,0.366
-0.052,-0.019,1.209,-29.907,45.959,2.136
0.025,0.035,1.026,-32.532,52.124,2.991
0.038,-0.024,0.596,-22.034,48.889,0.854
0.027,0.029,0.677,-5.737,15.869,3.052
0.028,0.008,0.600,6.958,-3.540,3.784
0.024,-0.001,0.570,9.644,-8.118,2.014
0.002,0.006,0.882,8.179,-18.921,1.770
-0.017,-0.000,1.030,15.869,-25.818,1.709
-0.051,-0.054,1.255,19.592,-22.888,1.160
-0.073,-0.017,1.511,22.827,-26.550,4.211
-0.087,-0.018,1.529,1.648,0.854,3.662
-0.078,-0.021,1.643,-8.301,26.184,4.883
-0.054,-0.021,1.754,-18.005,50.476,6.470
-0.046,0.146,1.828,-46.570,72.021,6.775
0.011,0.011,0.937,-26.978,101.624,0.122
0.007,-0.053,0.365,2.258,117.676,-5.432
0.097,-0.012,0.062,13.916,89.050,-2.808
0.089,-0.029,-0.039,8.850,56.030,0.610
0.082,-0.035,-0.010,-3.235,25.146,2.197
0.118,0.001,-0.019,-5.493,-1.953,3.723
0.137,0.047,-0.001,-2.686,-27.405,3.601
0.038,-0.037,0.294,0.610,-64.636,3.967
0.020,-0.007,0.534,-5.554,-88.928,6.592
0.007,0.054,0.695,-13.916,-99.976,5.615
-0.163,-0.034,2.646,34.729,-149.963,10.193
-0.194,-0.036,1.488,186.401,-128.479,11.536
-0.194,-0.221,0.655,35.095,32.898,-6.592
-0.045,0.110,1.502,-25.696,-47.485,3.052
0.015,-0.067,0.960,-22.034,-10.132,-4.822
-0.032,-0.038,0.474,-6.409,25.696,-4.639
-0.062,-0.116,1.128,8.240,-1.953,2.563
-0.078,-0.043,1.254,5.310,-3.052,3.845
-0.025,0.053,1.236,-16.479,33.813,0.732
-0.045,-0.039,1.244,-31.677,48.767,2.014
0.038,0.051,0.941,-22.827,45.715,3.174
0.032,-0.017,0.583,-18.372,39.246,0.488
0.023,0.027,0.686,-0.305,4.333,3.906
0.023,-0.001,0.609,8.606,-4.333,2.563
0.011,-0.002,0.654,9.583,-12.390,2.014
-0.005,0.021,1.007,10.681,-21.484,1.770
-0.028,-0.018,1.049,17.212,-22.156,1.221
-0.050,-0.016,1.254,20.569,-23.376,2.258
-0.046,-0.017,1.267,17.944,-20.264,4.150
-0.042,-0.021,1.143,0.244,1.770,2.319
-0.055,-0.000,1.310,-5.615,10.071,3.418
-0.064,-0.018,1.366,-7.507,25.635,3.784
-0.062,-0.015,1.707,-17.578,46.448,4.578
-0.021,0.067,1.932,-18.860,63.416,5.066
-0.058,0.002,1.506,-11.841,91.919,0.244
-0.006,0.018,0.936,-18.127,113.953,-4.028
0.015,-0.038,0.398,5.737,108.643,-4.272
0.092,-0.032,0.056,11.353,95.337,-3.296
0.110,-0.018,0.023,3.174,63.110,0.488
0.130,0.002,-0.033,1.587,19.653,3.113
0.105,-0.026,-0.054,0.427,-0.244,2.747
0.090,-0.018,-0.119,5.005,-29.053,3.357
0.093,0.027,-0.044,5.676,-57.129,4.272
0.001,-0.082,0.363,-0.488,-98.511,5.981
-0.014,0.028,0.715,-10.559,-125.427,10.254
0.008,0.127,1.641,-12.573,-127.686,6.653
-0.098,0.654,2.925,140.503,-186.768,15.442
-0.283,-0.244,0.724,130.737,8.484,-5.920
-0.128,-0.004,0.894,-25.208,-4.883,-9.644
0.016,0.012,1.480,-30.884,-70.618,5.371
-0.029,0.008,0.630,-14.526,15.137,1.831
-0.062,-0.122,0.480,4.028,33.020,-8.423
-0.054,0.030,1.472,17.456,-22.217,7.385
-0.094,-0.110,1.277,4.700,6.958,3.967
-0.019,0.051,1.233,-25.391,43.091,1.831
-0.027,-0.010,1.338,-43.762,59.631,3.113
0.052,-0.001,0.634,-27.710,59.143,2.380
0.041,-0.004,0.622,-14.648,37.842,0.488
0.033,0.029,0.631,5.615,-1.770,5.676
0.030,-0.016,0.486,10.681,-2.625,1.526
0.013,-0.020,1.141,10.010,-31.738,3.113
-0.033,-0.028,1.099,22.949,-31.067,1.404
-0.056,0.001,1.450,25.513,-29.602,2.197
-0.056,-0.042,1.220,15.442,-15.320,2.686
-0.039,-0.019,1.113,-0.366,1.038,2.808
-0.027,-0.006,1.028,-4.700,10.254,2.991
-0.015,0.000,0.939,-5.249,15.930,2.869
-0.026,-0.020,0.957,-9.583,22.766,1.892
-0.047,-0.009,1.286,-10.010,22.766,3.296
-0.030,-0.016,1.511,-7.812,28.931,4.700
-0.049,0.035,2.024,-9.766,37.842,5.432
-0.053,0.129,1.913,-20.569,64.514,3.113
0.010,0.040,1.049,-25.452,102.661,-1.831
0.010,-0.022,0.384,3.174,114.014,-4.822
0.080,-0.061,0.072,13.550,97.107,-4.089
0.132,0.014,-0.025,8.057,62.622,1.099
0.127,-0.002,-0.048,3.662,21.118,2.869
0.126,0.004,-0.031,0.854,-5.371,2.991
0.099,-0.001,-0.052,3.784,-30.396,2.808
0.042,-0.011,0.100,6.470,-61.646,3.174
0.004,-0.119,0.437,-1.892,-93.933,4.578
-0.003,0.081,0.731,-14.709,-114.197,8.118
-0.081,-0.034,1.811,-8.057,-119.690,5.310
-0.129,0.491,2.970,134.521,-186.829,14.099
-0.229,-0.237,0.649,85.510,14.771,-5.798
-0.101,-0.014,1.017,-24.597,-11.902,-2.808
0.024,0.040,1.439,-20.691,-66.711,4.822
-0.009,-0.011,0.564,-7.996,33.691,-1.892
-0.069,-0.056,0.477,0.183,44.250,-4.822
-0.042,0.055,1.412,2.625,-23.193,3.723
-0.032,0.028,1.310,-6.775,9.766,5.920
-0.045,-0.067,1.147,-29.602,55.725,-0.183
0.038,0.034,1.009,-24.353,45.105,3.235
0.031,-0.027,0.633,-15.076,33.997,1.831
0.023,0.016,0.673,-2.075,8.301,2.869
0.024,-0.001,0.633,6.958,-4.150,2.808
0.014,-0.004,0.658,9.644,-11.475,2.258
-0.004,0.010,0.972,10.254,-19.470,1.587
-0.195,0.048,0.943,231.140,-105.835,16.968
-0.315,-0.309,0.443,64.270,61.279,-6.226
-0.058,0.178,1.299,-51.331,-63.660,-4.944
0.084,-0.034,1.206,-33.081,-61.768,-6.226
-0.042,-0.076,0.236,-13.428,55.420,-0.244
-0.038,-0.006,0.535,12.329,8.606,0.122
-0.044,0.200,1.910,33.264,-55.847,4.822
-0.110,-0.189,1.162,2.502,22.522,-6.775
-0.035,-0.004,1.238,-33.264,51.331,1.465
-0.020,0.027,1.239,-43.640,48.645,5.798
0.060,-0.018,0.453,-29.968,69.763,-1.038
0.038,-0.016,0.456,-7.568,37.170,1.770
0.013,0.044,0.863,7.385,-19.653,5.920
0.013,-0.016,0.514,9.338,-5.127,1.648
0.015,0.005,0.796,7.141,-16.846,2.380
-0.011,0.010,1.011,14.954,-28.564,1.770
-0.051,-0.023,1.189,21.606,-29.114,1.099
-0.062,-0.027,1.249,27.710,-31.677,2.808
-0.053,-0.010,1.319,14.526,-20.569,5.188
-0.046,-0.037,1.076,-2.075,8.301,0.671
-0.027,-0.013,1.031,-8.423,17.395,1.892
-0.008,0.004,0.952,-7.935,19.592,2.869
-0.004,-0.025,0.725,-12.817,28.137,1.282
0.009,-0.000,0.820,-6.958,17.639,1.831
0.006,-0.007,0.851,1.038,4.761,2.319
-0.023,-0.022,1.092,5.493,-4.639,2.563
-0.061,-0.034,1.302,7.507,-7.690,5.127
-0.062,-0.005,1.590,4.517,2.991,7.935
-0.044,0.013,1.750,-10.559,35.339,5.371
-0.056,-0.048,1.480,-9.155,59.326,3.601
-0.016,-0.012,1.060,-18.555,88.745,-0.671
0.048,-0.011,0.449,2.197,84.961,-1.343
0.089,0.000,0.268,11.597,61.340,1.404
0.103,0.004,0.149,10.681,36.865,1.892
0.090,-0.004,0.107,7.202,13.245,2.380
0.090,-0.007,0.230,0.671,-9.888,2.441
0.055,-0.001,0.360,-1.404,-34.851,2.991
0.047,-0.044,0.455,-3.296,-57.007,2.197
0.019,0.011,0.508,-9.949,-68.237,2.563
-0.011,0.001,1.069,-7.324,-85.327,2.747
-0.027,0.334,3.376,62.927,-147.644,11.902
-0.188,-0.180,1.371,95.032,-67.139,-0.854
-0.121,-0.110,1.111,5.310,9.399,-9.338
-0.019,0.084,1.226,-12.390,-29.602,7.996
-0.038,-0.083,0.818,-8.850,12.695,1.953
-0.042,-0.032,0.654,-0.854,26.428,-0.549
-0.055,-0.046,1.240,2.380,-6.653,5.493
-0.035,0.037,1.162,-10.620,17.090,3.479
-0.041,-0.038,1.095,-24.597,46.509,-0.549
0.006,0.002,1.012,-21.118,42.480,2.441
0.029,-0.007,0.727,-14.465,31.067,2.136
0.009,0.006,0.686,-2.441,9.338,2.808
0.014,0.001,0.691,6.409,-3.662,2.869
0.006,-0.000,0.761,10.010,-10.315,2.441
-0.005,0.004,0.932,10.376,-15.137,2.014
-0.020,-0.009,1.015,12.451,-16.296,1.465
-0.044,-0.033,1.190,12.817,-14.832,1.404
-0.042,-0.020,1.205,15.869,-17.090,3.723
-0.034,-0.006,1.175,7.202,-8.118,4.578
-0.026,-0.019,1.030,-2.686,8.362,1.831
-0.014,-0.004,0.965,-4.761,14.709,1.892
-0.003,-0.006,0.896,-6.653,18.311,1.770
-0.040,-0.052,1.089,-8.423,18.311,1.587
-0.054,0.038,1.674,-2.075,7.935,8.118
-0.070,-0.060,2.186,-9.888,29.663,7.751
-0.075,0.280,2.351,-66.833,60.486,7.141
-0.075,0.084,1.426,-66.040,118.103,-1.038
-0.080,-0.068,0.194,-30.273,202.637,-12.329
0.088,-0.040,-0.411,-26.123,190.674,-15.076
0.095,-0.254,0.227,-16.296,69.885,2.747
0.104,0.078,0.378,1.648,-8.179,16.174
0.059,-0.107,0.088,19.470,6.042,5.127
0.048,-0.061,-0.024,26.184,-8.972,6.897
0.072,-0.044,-0.144,25.452,-43.457,11.780
0.110,-0.042,-0.099,9.827,-65.735,13.306
0.099,-0.056,0.158,2.441,-109.070,17.151
-0.023,0.090,0.534,-5.371,-146.423,23.499
-0.000,0.492,2.136,10.559,-169.861,24.719
0.010,0.615,2.723,239.319,-172.729,23.682
-0.344,-0.250,0.416,145.142,54.260,0.244
-0.155,-0.023,0.961,-45.532,-35.034,-14.160
0.076,0.102,1.546,-42.236,-81.543,-5.676
-0.036,-0.088,0.557,-16.357,20.813,0.366
-0.061,-0.033,0.508,8.545,28.259,-3.174
-0.047,0.087,1.610,20.386,-34.058,6.042
-0.100,-0.156,1.264,3.174,14.648,2.380
-0.034,0.020,1.212,-28.503,51.208,1.221
-0.014,0.000,1.263,-44.128,57.556,3.662
0.040,-0.012,0.525,-28.687,60.730,1.526
0.060,0.066,0.671,-10.376,28.076,2.380
0.011,0.001,0.643,7.874,-4.822,5.859
0.021,-0.008,0.586,10.437,-2.441,2.075
0.018,0.002,0.581,5.432,-12.207,2.075
-0.000,0.025,1.035,7.690,-24.719,1.709
-0.032,-0.022,1.064,21.729,-30.457,1.038
-0.055,-0.018,1.352,25.146,-29.297,1.465
-0.058,-0.036,1.263,19.409,-21.240,2.686
-0.045,-0.028,1.143,2.258,-1.404,2.441
-0.031,-0.014,1.047,-4.517,8.606,3.052
-0.014,0.000,0.961,-7.141,17.334,2.808
-0.008,-0.019,0.823,-10.620,24.658,1.770
0.008,-0.005,0.828,-7.751,19.775,2.075
-0.003,-0.009,0.973,-2.380,9.460,2.686
-0.038,-0.013,1.297,1.648,3.174,3.479
-0.051,-0.021,1.520,-0.061,11.719,4.150
-0.050,0.027,1.901,-8.118,28.564,4.944
-0.066,-0.085,1.604,-6.409,58.594,2.869
-0.004,0.043,1.129,-23.132,92.285,-0.305
0.023,-0.037,0.378,1.709,100.586,-3.357
0.082,-0.018,0.187,12.024,76.050,-1.221
0.113,0.014,0.049,11.841,41.992,2.441
0.104,0.012,0.033,6.592,16.602,2.686
0.095,-0.002,0.101,1.892,-8.728,2.441
0.061,0.005,0.229,1.953,-35.400,2.625
0.029,-0.087,0.423,-0.488,-63.049,3.052
0.035,0.037,0.578,-9.705,-77.698,4.333
-0.008,0.026,0.672,-12.451,-85.693,3.113
-0.117,-0.115,2.575,32.532,-130.310,5.737
-0.172,-0.039,1.823,124.329,-124.329,6.836
-0.276,-0.140,0.815,126.648,1.099,1.709
-0.112,-0.065,0.888,-15.381,9.766,-5.859
0.038,0.017,1.289,-25.330,-75.073,4.211
-0.005,-0.018,0.941,-17.090,0.244,-5.432
-0.046,-0.048,0.447,2.747,37.170,-0.549
-0.049,-0.026,1.101,15.320,-10.925,2.014
-0.088,-0.072,1.405,2.441,-7.996,1.160
-0.026,0.065,1.187,-22.522,45.532,-0.122
-0.033,-0.045,1.210,-37.048,58.289,0.732
0.032,0.001,0.648,-27.832,58.472,1.221
0.050,0.023,0.636,-10.803,30.640,2.319
0.008,-0.007,0.680,6.775,-4.456,4.211
0.020,-0.003,0.596,9.277,-1.526,2.197
0.014,0.008,0.625,5.615,-11.108,1.953
-0.005,0.013,1.034,9.155,-23.560,1.526
-0.033,-0.012,1.078,20.691,-26.733,1.587
-0.064,-0.066,1.239,25.024,-29.358,2.075
-0.050,0.010,1.408,19.348,-30.457,6.409
-0.042,-0.034,1.112,1.648,2.869,1.099
-0.032,-0.020,0.989,-8.362,20.325,0.610
-0.013,-0.000,0.932,-8.484,19.775,3.052
-0.005,-0.005,0.859,-8.911,21.301,1.770
0.005,-0.001,0.809,-7.019,18.982,1.587
-0.004,-0.011,0.931,-1.038,6.470,2.075
-0.046,-0.029,1.217,2.930,-1.221,3.174
-0.052,0.024,1.580,7.751,-4.700,7.080
-0.059,0.009,1.877,-7.935,22.400,6.226
-0.074,-0.033,1.667,-9.583,57.495,3.296
-0.017,0.051,1.284,-20.996,91.248,-0.122
0.019,-0.048,0.562,-5.310,108.521,-3.906
0.052,-0.039,0.172,9.399,99.487,-2.625
0.109,0.014,0.143,12.512,51.575,2.136
0.111,0.014,0.064,8.179,23.254,3.174
0.118,0.003,0.042,3.662,3.662,2.380
0.089,-0.001,0.087,3.174,-19.775,2.258
0.046,-0.000,0.241,2.075,-51.331,3.174
0.030,-0.067,0.454,-6.287,-76.477,3.113
-0.031,0.035,1.562,-4.456,-104.187,3.174
-0.167,0.380,2.672,110.229,-169.678,12.329
-0.220,-0.209,0.801,90.942,-7.996,-2.686
-0.126,-0.063,1.041,-7.507,-6.836,-2.197
0.002,-0.014,1.199,-16.541,-47.729,4.028
-0.035,-0.080,0.579,-12.756,22.644,-2.930
-0.050,-0.009,0.754,5.615,17.883,2.258
-0.075,-0.140,1.338,6.958,-18.066,3.296
-0.060,-0.006,1.290,-11.169,14.282,2.991
-0.046,-0.022,1.201,-27.649,52.246,-0.427
0.010,-0.003,0.996,-30.884,58.472,0.061
0.040,0.007,0.669,-20.935,43.152,2.136
0.025,0.011,0.757,-3.296,9.827,4.028
0.018,0.002,0.602,8.179,1.404,2.991
0.020,-0.001,0.617,8.362,-6.592,2.502
0.001,-0.003,0.846,6.104,-14.526,1.831
-0.010,-0.000,1.022,13.855,-22.522,1.465
-0.041,-0.022,1.169,18.005,-21.118,1.038
-0.051,-0.026,1.216,22.278,-26.367,3.052
-0.040,0.004,1.287,13.306,-20.447,5.310
-0.039,-0.033,1.059,-1.099,7.324,0.793
-0.024,-0.004,0.968,-8.240,18.921,1.160
-0.007,-0.001,0.919,-7.324,18.738,2.502
-0.030,-0.024,0.987,-9.033,20.508,1.892
-0.051,-0.019,1.305,-6.226,16.296,4.395
-0.047,-0.016,1.635,-3.967,19.470,7.141
-0.059,0.044,2.020,-11.475,37.903,6.836
-0.072,-0.066,1.700,-10.254,74.768,2.441
0.000,-0.024,1.023,-27.710,110.229,-1.770
0.005,-0.046,0.324,-1.648,128.418,-5.371
0.085,-0.006,0.064,10.071,100.586,-1.770
0.118,-0.001,0.056,5.798,54.626,2.686
0.096,-0.041,-0.034,4.395,22.827,3.540
0.088,-0.045,-0.052,4.272,-1.038,4.272
0.100,-0.019,-0.053,8.667,-31.616,5.981
0.126,0.049,0.113,8.118,-61.218,7.019
0.017,-0.005,0.422,-1.831,-93.323,6.653
0.020,0.055,0.779,-11.902,-115.845,7.690
0.037,0.106,1.207,-13.184,-110.413,4.028
-0.253,0.280,2.618,100.464,-179.321,11.292
-0.269,-0.159,0.928,130.859,-28.748,2.625
-0.139,-0.087,0.731,1.770,10.681,-8.301
0.007,0.078,1.380,-25.208,-69.397,4.272
-0.015,-0.126,0.754,-21.423,3.479,-7.690
-0.047,-0.009,0.536,4.883,18.921,-1.465
-0.064,-0.058,1.226,14.465,-12.146,3.418
-0.100,-0.082,1.358,3.357,3.052,5.920
-0.032,0.068,1.258,-22.095,40.649,1.404
-0.048,-0.033,1.270,-39.795,61.218,1.221
0.019,0.007,0.782,-31.860,60.730,1.892
0.057,0.044,0.689,-18.738,42.725,0.854
0.013,-0.009,0.615,5.676,3.784,5.676
0.027,0.004,0.573,9.399,3.540,1.770
0.022,-0.005,0.502,6.287,-8.240,2.380
0.011,0.005,0.804,2.319,-17.517,1.831
-0.009,0.014,1.127,15.747,-32.166,2.319
-0.056,-0.054,1.234,26.978,-31.433,1.160
-0.053,0.009,1.425,28.625,-36.438,5.127
-0.044,-0.027,1.236,9.827,-13.916,3.967
-0.038,-0.033,1.025,-4.578,12.085,0.122
-0.020,-0.005,0.981,-8.606,17.273,1.953
-0.008,0.003,0.914,-7.935,20.081,2.441
-0.001,-0.019,0.779,-10.681,25.330,1.099
-0.020,-0.011,1.071,-6.165,14.893,2.319
-0.046,-0.021,1.325,-1.709,8.545,4.211
-0.057,-0.019,1.624,-0.732,13.611,6.897
-0.056,0.041,1.949,-8.179,33.325,7.324
-0.050,0.001,1.544,-8.911,73.792,1.953
0.007,-0.000,0.981,-17.456,101.440,-1.343
0.023,-0.057,0.266,3.723,111.755,-4.578
0.101,0.010,0.045,11.292,81.665,-0.488
0.113,-0.004,0.043,8.301,33.936,3.113
0.105,0.002,0.032,3.967,7.996,3.235
0.130,0.028,0.088,2.197,-12.939,2.991
0.069,-0.012,0.198,4.028,-40.466,2.808
0.022,-0.031,0.366,0.061,-67.383,3.113
0.046,0.043,0.630,-10.620,-89.355,4.883
-0.001,0.022,0.720,-12.573,-96.375,4.333
-0.125,-0.084,2.631,37.476,-138.184,6.165
-0.202,-0.090,1.586,137.207,-118.530,8.728
-0.179,-0.206,0.611,27.527,34.912,-9.888
-0.046,0.062,1.487,-18.311,-52.429,4.578
-0.116,0.523,2.765,169.312,-198.547,19.104
-0.239,-0.266,0.739,80.139,17.761,-1.709
-0.017,0.014,0.914,-11.536,-23.254,-2.441
0.007,0.049,1.164,-4.761,-60.974,6.531
-0.074,-0.037,0.871,-9.338,1.343,-6.531
-0.072,-0.068,0.635,7.935,26.123,-6.226
-0.063,0.001,1.383,27.283,-19.104,1.953
-0.113,-0.150,1.322,-0.854,12.207,-2.197
-0.017,0.128,1.329,-31.372,29.663,1.709
-0.010,0.015,1.250,-43.945,59.082,1.953
0.018,-0.005,0.598,-31.250,77.209,-0.244
0.039,0.028,0.509,-12.146,44.983,1.648
0.013,0.004,0.763,8.423,-10.742,5.127
0.024,-0.001,0.522,8.118,1.099,2.319
0.016,-0.000,0.554,7.019,-12.268,2.258
-0.004,0.011,1.002,5.249,-23.499,1.587
-0.024,0.010,1.114,25.391,-40.283,2.441
-0.063,-0.010,1.299,28.320,-36.682,3.174
-0.062,-0.020,1.313,17.395,-27.039,2.136
-0.051,-0.020,1.196,5.310,-7.874,2.502
-0.043,-0.026,1.060,-2.197,12.207,1.465
-0.021,0.009,0.948,-8.850,24.170,3.113
-0.010,0.000,0.875,-11.292,25.085,1.709
-0.000,-0.002,0.797,-9.460,22.278,1.587
0.006,0.000,0.907,-2.991,11.108,2.014
-0.019,-0.009,1.028,2.075,1.831,2.136
-0.059,-0.052,1.224,5.981,-6.470,3.540
-0.074,0.025,1.858,-14.587,37.109,5.676
-0.047,0.077,1.667,-15.381,78.247,1.038
-0.008,-0.021,1.101,-17.578,112.183,-3.418
0.007,-0.034,0.365,-2.502,126.770,-4.272
0.082,0.003,0.046,6.653,103.088,-2.136
0.126,0.016,0.098,10.193,40.405,3.174
0.129,0.017,0.017,7.629,12.817,3.418
0.115,0.002,0.029,7.690,-9.644,2.930
0.092,0.005,0.133,8.240,-36.682,3.113
0.023,-0.004,0.273,4.272,-61.218,3.296
0.030,-0.047,0.525,-6.042,-88.867,3.479
0.005,0.042,0.674,-14.038,-98.328,3.479
-0.083,-0.004,1.782,-0.916,-106.689,2.563
-0.189,0.336,2.661,129.028,-166.504,13.489
-0.223,-0.217,0.659,85.571,15.747,-1.953
-0.104,-0.051,1.689,-9.705,-27.405,0.916
0.002,-0.020,1.019,-19.592,-31.372,2.869
-0.034,-0.070,0.529,-13.672,20.081,-2.808
-0.052,0.019,1.027,8.240,3.052,2.075
-0.064,-0.011,1.199,8.606,-9.521,1.282
-0.075,-0.079,1.301,-13.306,17.639,-3.052
-0.041,0.034,1.245,-28.992,43.335,1.221
0.010,-0.028,1.027,-29.785,56.335,0.061
0.025,-0.010,0.582,-23.926,53.955,2.991
0.025,0.034,0.881,-2.808,9.644,4.517
0.016,0.013,0.577,7.812,2.258,2.808
0.020,-0.000,0.615,7.935,-3.784,2.441
0.007,0.009,0.727,4.211,-11.230,2.075
-0.006,0.013,1.055,11.292,-23.560,1.648
-0.036,-0.016,1.095,20.386,-23.804,1.465
-0.060,-0.045,1.217,24.658,-30.457,2.441
-0.046,-0.004,1.362,15.503,-30.701,5.310
-0.040,-0.037,1.149,1.465,1.282,1.465
-0.027,0.008,0.968,-6.714,24.658,1.343
-0.016,-0.009,0.891,-11.169,25.757,2.686
-0.010,-0.007,0.889,-7.690,19.104,1.831
-0.036,-0.016,1.089,-6.958,15.625,2.014
-0.040,-0.039,1.337,0.122,7.202,4.333
-0.043,0.032,1.722,-5.249,12.512,8.484
-0.050,0.028,1.687,-8.850,41.260,5.188
-0.035,0.027,1.378,-2.991,72.998,1.221
0.022,0.003,0.994,5.310,91.187,-1.343
0.037,-0.037,0.187,5.493,112.183,-3.357
0.082,-0.022,0.016,11.108,75.684,0.305
0.115,0.009,0.147,6.226,15.991,4.272
0.101,0.010,0.157,2.197,-2.075,3.174
0.099,0.004,0.185,2.258,-16.663,2.380
0.045,-0.003,0.293,2.197,-40.894,2.441
0.038,-0.052,0.468,-3.906,-68.054,2.930
0.021,0.030,0.701,-10.803,-86.060,3.479
-0.013,0.085,1.025,-5.920,-91.980,1.953
-0.116,0.525,3.176,65.125,-152.222,8.362
-0.199,-0.139,1.171,103.333,-50.781,2.197
-0.125,-0.133,1.522,11.230,4.211,-5.981
-0.036,-0.039,1.051,-21.423,-22.278,5.188
-0.020,-0.060,0.713,-10.742,7.141,0.732
-0.046,-0.027,0.874,4.578,7.019,2.380
-0.060,-0.032,1.094,2.930,2.197,2.869
-0.067,-0.008,1.234,-6.226,14.343,2.136
-0.033,0.027,1.161,-24.414,38.574,0.122
-0.001,-0.029,1.050,-26.367,47.058,0.244
0.013,-0.005,0.749,-22.278,42.969,2.075
0.030,0.018,0.819,-6.653,16.479,3.784
0.010,0.003,0.603,6.104,4.028,3.174
0.018,-0.000,0.640,7.874,-3.540,2.380
0.009,0.008,0.766,4.822,-10.559,1.953
-0.002,0.010,1.003,10.742,-20.081,1.709
-0.026,-0.011,1.093,17.761,-20.813,1.587
-0.056,-0.045,1.179,20.630,-24.414,2.014
-0.039,-0.003,1.296,19.470,-28.809,5.005
-0.035,-0.010,1.167,2.625,-5.432,2.930
-0.030,-0.024,1.000,-5.615,19.226,0.305
-0.016,-0.002,0.902,-10.925,25.208,2.686
-0.005,-0.002,0.874,-7.690,20.264,1.709
0.004,-0.003,0.868,-5.005,15.015,1.892
-0.006,-0.002,0.968,-1.038,7.324,2.014
-0.036,-0.013,1.146,2.686,-0.061,2.747
-0.042,-0.007,1.371,6.714,-3.418,5.737
-0.043,0.027,1.622,-4.944,11.353,8.240
-0.035,0.022,1.460,-6.775,40.955,4.272
-0.010,-0.001,1.206,-2.991,69.153,-0.549
0.015,-0.010,0.649,-0.977,85.754,-1.404
0.055,-0.035,0.324,9.094,70.129,0.854
0.084,0.009,0.303,9.338,33.508,2.380
0.078,-0.000,0.235,5.432,13.184,2.502
0.071,-0.000,0.307,2.014,-3.357,2.625
0.053,-0.009,0.461,-0.305,-26.489,3.113
0.049,-0.002,0.477,-1.892,-41.931,2.380
0.023,0.002,0.471,-6.287,-50.781,2.014
-0.006,0.013,0.671,-5.066,-71.411,2.136
-0.066,-0.097,2.055,25.940,-109.863,3.601
-0.106,0.038,2.100,90.332,-119.507,9.705
-0.142,-0.089,1.646,98.267,-105.042,7.568
-0.139,-0.158,0.952,26.550,17.578,-8.545
-0.062,-0.029,1.218,-10.559,-24.353,5.005
-0.017,-0.039,0.934,-14.221,6.226,1.770
-0.044,-0.043,0.679,-6.409,23.193,0.793
-0.050,-0.015,1.075,-1.343,5.737,3.906
-0.039,0.030,1.133,-6.042,14.099,2.869
-0.026,-0.003,1.105,-18.982,35.278,0.671
-0.000,-0.020,1.020,-21.423,41.321,-0.305
0.019,0.002,0.821,-15.320,30.579,2.136
0.017,0.013,0.760,-2.869,9.705,3.601
0.010,0.009,0.704,5.249,-0.793,3.052
0.009,0.001,0.763,8.179,-6.348,2.502
-0.001,-0.001,0.885,7.874,-10.376,1.892
-0.010,-0.001,0.980,10.681,-13.611,1.526
-0.027,-0.013,1.099,13.306,-14.648,1.526
-0.044,-0.027,1.126,14.099,-15.625,2.258
-0.037,-0.014,1.166,14.160,-17.334,3.784
-0.032,-0.007,1.134,4.944,-5.676,3.418
-0.026,-0.021,1.007,-4.700,13.123,0.977
-0.019,-0.006,0.942,-9.033,21.057,1.770
-0.040,-0.020,1.075,-8.606,19.287,2.319
-0.034,-0.040,1.259,-4.700,15.015,3.723
-0.038,-0.014,1.496,-6.042,20.020,6.104
-0.042,0.037,1.627,-7.446,33.569,6.653
-0.029,0.025,1.361,-3.418,60.242,2.197
0.006,0.002,1.065,2.686,80.933,-1.282
0.042,-0.046,0.293,5.859,94.849,-1.038
0.079,-0.008,0.093,11.841,68.359,0.610
0.100,0.014,0.160,6.531,19.958,3.174
0.094,0.002,0.170,2.502,0.244,2.869
0.072,0.009,0.295,0.916,-20.752,2.991
0.049,-0.017,0.435,0.122,-44.495,2.930
0.055,0.018,0.553,-4.272,-61.707,2.625
0.012,0.019,0.579,-8.667,-69.641,2.258
-0.054,0.067,1.415,0.305,-89.294,1.770
-0.000,0.423,3.202,72.571,-147.949,9.583
-0.186,-0.177,1.124,77.332,-31.860,-1.648
-0.115,-0.077,1.404,5.066,-1.465,-2.380
-0.021,-0.023,1.069,-15.198,-17.212,4.822
-0.036,-0.066,0.687,-9.644,14.038,0.366
-0.047,-0.025,0.996,0.916,11.414,2.319
-0.058,-0.016,1.104,-0.549,4.578,3.479
-0.038,0.023,1.157,-11.963,21.179,2.014
-0.023,-0.009,1.125,-22.766,39.673,0.732
-0.002,-0.020,0.990,-22.461,43.762,0.244
0.033,0.017,0.801,-14.709,30.457,2.625
0.013,0.009,0.745,-1.038,7.446,3.479
0.013,0.003,0.649,7.141,0.061,2.869
0.013,0.004,0.720,7.019,-6.836,2.502
-0.001,0.001,0.907,7.263,-13.245,1.770
-0.013,-0.003,1.008,13.367,-17.151,1.526
-0.038,-0.019,1.142,15.869,-18.127,1.770
-0.048,-0.033,1.172,18.372,-21.423,2.930
-0.036,-0.000,1.237,13.367,-18.677,4.700
-0.032,-0.022,1.073,-0.244,4.089,1.709
-0.023,-0.006,0.976,-7.385,18.799,1.465
-0.010,-0.002,0.914,-8.484,20.935,2.380
-0.004,-0.005,0.860,-7.446,19.409,1.770
0.002,-0.001,0.884,-3.296,11.902,2.075
0.001,-0.003,0.883,1.709,3.113,2.258
-0.036,-0.018,1.077,4.272,-3.357,2.625
-0.068,-0.083,1.351,7.935,-9.216,4.395
-0.085,0.009,1.993,-1.404,-0.916,10.315
-0.080,-0.075,1.952,-14.648,47.668,4.944
-0.068,0.029,1.429,-42.236,95.947,-0.488
-0.002,-0.009,0.870,-13.855,122.131,-4.456
0.040,-0.038,0.269,-3.784,123.352,-2.686
0.114,0.019,0.061,10.010,82.703,0.549
0.117,-0.003,0.001,13.611,33.630,3.052
0.110,-0.005,0.012,9.827,5.981,3.906
0.143,0.029,0.079,8.423,-16.907,4.150
0.082,-0.013,0.145,7.324,-38.635,3.296
0.023,-0.014,0.322,1.038,-66.223,3.235
0.033,-0.006,0.586,-9.521,-92.041,3.540
0.001,0.034,0.655,-14.465,-98.022,3.296
-0.187,-0.411,2.137,22.461,-129.822,4.272
-0.207,0.112,1.643,153.564,-147.888,15.198
-0.203,-0.242,0.528,49.500,36.926,-7.568
-0.083,0.006,1.598,-16.846,-52.002,3.235
0.007,-0.036,0.970,-24.719,-16.052,-0.610
-0.038,-0.050,0.504,-8.179,18.921,-4.089
-0.054,-0.003,1.084,8.362,-0.977,3.113
-0.087,-0.092,1.284,6.714,-4.333,0.854
-0.048,0.027,1.281,-15.137,28.625,1.404
-0.050,-0.047,1.240,-31.372,52.856,1.221
0.015,0.023,0.932,-30.518,55.969,1.282
0.046,0.019,0.701,-19.775,39.856,1.404
0.011,0.006,0.716,2.319,5.066,5.432
0.018,0.002,0.632,9.399,2.441,2.197
0.019,-0.001,0.585,6.287,-5.493,2.502
0.008,-0.000,0.797,3.113,-12.451,1.709
-0.005,0.009,1.070,12.939,-24.658,1.953
-0.040,-0.021,1.160,21.179,-24.048,1.038
-0.050,-0.021,1.233,24.353,-29.785,3.235
-0.042,0.003,1.296,15.015,-23.743,5.554
-0.039,-0.038,1.054,-0.854,6.592,0.671
-0.022,-0.007,0.976,-8.423,18.127,1.099
-0.036,-0.024,1.053,-8.545,18.494,2.625
-0.045,-0.013,1.314,-9.155,21.301,4.333
-0.057,-0.051,1.646,-11.230,31.189,5.859
-0.051,0.062,2.059,-14.893,44.617,7.141
-0.074,-0.013,1.600,-12.817,82.703,1.343
-0.033,-0.048,0.877,-21.118,121.948,-3.967
0.001,-0.129,0.203,-26.062,154.419,-7.629
0.120,0.006,-0.060,-5.981,110.596,-1.282
0.138,0.035,0.119,-5.005,47.424,3.174
0.134,0.020,0.192,5.310,0.061,4.150
0.119,0.002,0.044,14.343,-16.296,3.174
0.085,-0.007,0.081,19.287,-41.626,3.357
0.052,0.030,0.179,19.775,-81.665,5.310
0.035,-0.085,0.519,5.676,-105.408,4.822
-0.017,0.069,0.737,0.427,-123.840,8.606
-0.091,0.024,1.904,7.263,-122.620,3.540
-0.131,0.575,2.742,130.493,-163.452,14.893
-0.266,-0.263,0.755,93.445,21.729,-5.859
-0.112,-0.070,1.126,-20.630,-14.893,-3.113
0.038,-0.005,1.229,-22.095,-48.767,5.615
-0.028,-0.064,0.690,-11.841,21.912,-3.845
-0.190,-0.127,1.292,105.591,-67.871,4.456
-0.130,-0.127,0.806,12.878,18.982,-6.409
-0.039,0.003,1.285,-13.794,-46.936,6.165
-0.021,-0.092,0.683,-14.160,13.611,-0.977
-0.038,-0.022,0.679,2.258,18.616,2.075
-0.051,-0.012,1.163,5.920,-8.972,3.845
-0.081,-0.067,1.258,-7.507,9.888,-0.366
-0.036,0.036,1.189,-23.865,40.405,0.061
-0.005,-0.039,1.094,-27.710,51.147,0.549
0.010,-0.009,0.663,-24.292,49.622,2.258
0.031,0.019,0.862,-6.714,15.869,4.272
0.007,-0.002,0.588,6.714,5.005,3.235
0.019,-0.002,0.634,8.057,-3.113,2.808
0.011,0.003,0.710,4.333,-9.460,2.197
-0.003,0.004,1.007,9.338,-19.775,1.648
-0.023,-0.013,1.074,18.372,-22.095,1.404
-0.056,-0.045,1.206,19.836,-23.010,1.892
-0.039,0.000,1.257,20.935,-26.611,4.333
-0.035,-0.016,1.181,4.578,-8.911,3.296
-0.028,-0.034,1.021,-5.981,15.747,0.610
-0.016,-0.005,0.891,-11.047,25.391,2.319
-0.008,-0.008,0.902,-7.935,19.714,2.258
-0.031,-0.015,1.113,-7.935,16.479,1.831
-0.044,-0.060,1.354,-2.502,11.230,3.845
-0.056,0.034,2.037,-4.211,11.475,9.155
-0.058,0.150,2.050,-32.715,48.279,5.737
-0.065,0.017,1.313,-44.678,103.577,-1.892
-0.025,-0.093,0.645,-22.705,138.489,-5.554
0.060,-0.032,0.010,-17.151,147.278,-4.700
0.134,0.010,-0.013,-4.639,87.036,0.732
0.138,0.029,0.208,2.380,11.658,4.578
0.125,0.010,0.195,12.939,-17.822,4.028
0.096,-0.002,0.088,17.273,-23.987,3.235
0.060,0.006,0.159,21.545,-57.617,4.395
0.026,-0.045,0.343,13.062,-89.539,4.944
0.027,0.045,0.734,0.793,-114.441,5.554
-0.029,0.026,0.729,-0.610,-113.037,4.944
-0.259,0.179,2.820,59.082,-151.306,7.446
-0.229,-0.090,1.118,157.654,-81.787,12.512
-0.149,-0.205,0.670,12.451,37.598,-6.470
-0.032,0.044,1.268,-24.475,-52.734,5.981
0.012,-0.098,1.056,-14.587,-19.104,-0.427
-0.063,-0.023,0.502,-5.188,42.603,-0.305
-0.061,-0.011,1.051,8.179,6.348,3.235
-0.049,-0.025,1.298,-1.709,-10.620,1.221
-0.030,0.008,1.230,-23.926,32.043,-1.953
-0.013,-0.056,1.107,-27.100,58.105,-0.854
0.030,0.014,0.611,-23.315,54.260,2.075
0.030,0.011,0.834,-5.127,10.376,4.333
0.007,0.007,0.686,6.042,-1.160,3.113
0.015,-0.003,0.675,10.071,-6.104,2.930
0.002,0.001,0.813,7.141,-11.719,2.258
-0.012,0.001,0.979,11.719,-17.761,1.587
-0.033,-0.019,1.108,16.602,-19.043,1.343
-0.054,-0.037,1.174,16.174,-17.395,2.014
-0.043,-0.018,1.200,14.526,-17.273,3.784
-0.035,-0.011,1.147,4.761,-5.981,3.479
-0.028,-0.021,1.019,-4.761,12.756,1.709
-0.013,-0.001,0.933,-9.033,21.484,2.136
-0.003,-0.008,0.834,-8.789,21.851,1.831
0.005,-0.004,0.856,-4.639,13.977,2.136
0.004,-0.002,0.882,0.549,5.554,2.258
-0.002,-0.006,0.943,4.822,-2.563,2.258
-0.008,-0.006,0.954,5.859,-6.104,2.197
-0.011,-0.009,0.956,6.287,-6.042,2.136
-0.024,-0.016,0.995,6.409,-5.554,2.075
-0.055,-0.030,1.189,4.944,-4.272,2.380
-0.068,0.003,1.328,6.836,-5.920,4.272
-0.061,-0.028,1.706,-7.629,2.930,4.150
-0.039,0.026,1.542,-15.564,41.443,3.540
-0.024,-0.022,1.197,-9.033,72.571,0.305
0.013,0.010,0.533,-7.019,96.191,0.977
0.047,-0.017,0.377,10.254,62.378,2.502
0.068,-0.023,0.427,8.972,27.588,3.418
0.076,0.009,0.342,7.690,12.451,3.601
0.082,0.016,0.449,1.160,-1.221,3.662
0.070,-0.012,0.562,-1.282,-18.494,3.052
0.058,-0.004,0.407,-1.282,-27.344,1.709
0.039,-0.003,0.431,-3.662,-43.518,1.343
0.006,0.017,0.622,-2.136,-66.406,2.075
-0.068,-0.242,1.758,23.132,-102.539,1.831
-0.081,0.079,2.325,80.811,-127.136,9.033
-0.139,-0.140,1.082,41.016,11.475,-5.859
-0.083,-0.087,1.179,-11.536,1.709,2.686
-0.017,-0.006,1.019,-9.338,-1.953,4.089
-0.044,-0.060,0.672,-9.399,23.682,0.854
-0.040,-0.009,1.055,-6.287,15.930,3.418
-0.031,0.022,1.031,-9.888,20.813,2.502
-0.011,-0.007,0.977,-15.869,32.593,0.793
-0.002,-0.008,1.010,-13.367,27.710,1.465
0.016,-0.004,0.870,-5.188,14.160,2.563
-0.000,0.000,0.795,0.732,3.845,3.174
0.003,0.005,0.804,5.188,-3.540,2.930
-0.003,-0.005,0.850,7.935,-6.165,2.319
-0.007,-0.003,0.920,7.751,-7.690,1.953
-0.014,-0.007,0.987,8.179,-9.216,1.770
-0.026,-0.014,1.055,9.705,-10.010,1.770
-0.034,-0.017,1.110,9.583,-9.766,2.197
-0.032,-0.022,1.115,6.531,-5.981,2.502
-0.028,-0.019,1.072,1.892,1.160,2.747
-0.018,-0.010,1.007,-2.319,8.667,2.686
-0.006,-0.007,0.923,-4.456,13.489,2.319
-0.015,-0.014,0.970,-4.761,13.306,2.075
-0.040,-0.012,1.308,-4.395,9.583,2.625
-0.072,-0.093,2.128,-3.052,-3.723,7.019
-0.081,0.401,2.800,-75.867,27.588,10.437
-0.016,-0.013,1.344,-87.769,125.061,-3.967
-0.129,-0.190,-0.016,-49.438,263.733,-20.447
0.077,-0.073,-0.570,-23.315,186.096,-12.512
0.181,-0.238,0.630,-24.719,31.982,6.714
0.168,0.157,0.956,35.645,-60.913,23.193
0.097,0.047,0.355,16.174,33.508,-0.244
0.102,-0.015,-0.024,13.062,48.340,-2.014
0.096,-0.025,0.101,5.615,-6.958,2.686
0.087,-0.020,0.070,-1.831,-34.546,4.333
0.073,0.019,-0.108,11.047,-59.204,6.287
0.020,0.013,0.151,22.705,-114.502,9.644
-0.033,0.045,0.608,20.813,-172.913,11.292
-0.069,0.020,2.212,20.996,-183.411,9.338
-0.240,-0.157,0.976,106.506,-42.725,5.554
-0.108,-0.047,0.878,3.113,9.644,-2.502
-0.021,0.014,1.286,-17.639,-59.998,5.920
-0.024,-0.057,0.843,-16.357,12.512,-2.686
-0.054,-0.023,0.520,0.549,30.640,0.061
-0.049,0.007,1.144,9.644,-11.414,3.906
-0.072,-0.109,1.330,-5.981,-1.221,-1.953
-0.032,0.059,1.237,-24.841,39.551,-0.549
-0.006,-0.081,1.107,-28.687,57.678,-0.488
0.023,0.016,0.583,-23.437,56.580,3.418
0.040,0.043,0.864,-4.333,12.573,4.578
0.012,0.005,0.651,6.897,-2.258,2.930
0.019,-0.002,0.656,8.667,-3.052,2.502
0.010,0.009,0.745,4.883,-9.766,1.953
-0.004,0.010,1.012,10.071,-19.165,1.343
-0.028,-0.013,1.092,17.517,-20.142,1.282
-0.056,-0.042,1.177,18.677,-21.973,1.892
-0.041,0.008,1.258,18.982,-26.062,4.639
-0.038,-0.013,1.164,3.601,-7.080,2.869
-0.033,-0.021,1.009,-4.578,16.724,1.038
-0.017,-0.003,0.911,-10.193,24.658,2.502
-0.007,-0.005,0.859,-8.118,20.996,1.648
0.001,-0.002,0.864,-5.066,14.832,2.075
0.000,-0.007,0.899,-0.122,6.531,2.197
-0.030,-0.015,1.083,3.479,-1.160,2.380
-0.074,-0.026,1.270,6.958,-6.897,4.028
-0.074,0.034,2.083,-0.671,-6.226,8.911
-0.071,-0.003,1.915,-20.142,45.349,5.432
-0.066,-0.057,1.211,-41.992,105.042,-3.296
0.014,0.007,0.537,-18.066,127.136,-3.906
0.080,0.023,0.234,-5.737,106.445,-1.465
0.116,0.020,0.197,8.667,54.199,2.136
0.112,-0.002,0.087,15.259,18.860,2.869
0.107,0.003,0.071,16.724,-8.179,3.479
0.075,-0.004,0.182,14.221,-36.804,4.028
0.039,-0.004,0.399,7.080,-61.523,4.272
0.034,0.003,0.670,-1.343,-79.651,3.235
-0.003,0.029,0.610,-11.963,-72.144,2.258
-0.026,0.068,1.456,-3.357,-88.074,1.709
-0.213,0.274,2.166,91.919,-150.452,10.010
-0.205,-0.199,0.905,78.430,-13.672,-0.427
-0.106,-0.046,1.204,-0.549,-8.057,-0.244
-0.017,-0.012,1.167,-10.193,-39.246,5.432
-0.048,-0.044,0.724,-11.292,23.437,-0.610
-0.035,-0.001,0.774,-0.854,25.940,2.319
-0.049,-0.009,1.157,3.784,-5.371,3.174
-0.030,0.021,1.194,-11.475,18.860,0.916
-0.025,-0.022,1.139,-21.240,41.504,-0.366
0.002,-0.019,0.986,-22.095,45.837,0.305
0.039,0.020,0.707,-13.977,29.907,3.967
0.008,0.007,0.761,1.160,2.869,3.723
0.011,0.004,0.710,8.240,-3.479,3.052
0.010,0.006,0.755,7.751,-7.568,2.502
-0.004,0.005,0.913,7.690,-12.390,1.953
-0.017,-0.002,1.016,12.756,-15.686,1.526
-0.042,-0.021,1.118,15.076,-16.235,1.648
-0.045,-0.027,1.164,17.761,-21.240,3.235
-0.035,-0.002,1.227,10.376,-16.602,4.639
-0.032,-0.024,1.043,-0.854,7.446,1.099
-0.026,-0.008,0.965,-7.935,20.325,1.831
-0.043,-0.010,1.163,-8.484,18.250,2.808
-0.064,-0.111,1.583,-8.057,11.841,4.700
-0.092,-0.065,2.291,-20.142,24.719,8.179
-0.086,0.192,2.021,-67.261,79.163,1.892
-0.063,0.087,0.847,-51.636,176.025,-9.399
0.005,-0.109,-0.254,-32.166,201.782,-15.015
0.185,0.067,-0.060,-17.517,113.770,-0.061
0.155,0.054,0.492,-1.099,-4.639,5.798
0.115,0.088,0.610,26.184,-32.837,5.005
0.095,-0.040,0.161,12.268,19.531,1.343
0.102,0.001,0.012,10.803,1.038,1.587
0.071,-0.010,0.187,-0.061,-37.476,3.479
0.055,0.075,0.269,1.404,-70.129,5.737
-0.024,-0.056,0.476,4.150,-101.868,4.883
-0.037,0.045,0.995,1.526,-128.662,7.080
-0.181,-0.286,2.136,40.405,-146.301,11.719
-0.239,0.130,2.404,134.583,-155.029,16.907
-0.148,-0.184,1.193,30.090,29.968,-10.376
-0.015,0.011,1.006,-16.541,5.249,3.906
-0.004,0.005,0.513,-5.798,11.353,4.883
-0.004,0.048,0.605,-3.113,9.827,2.502
-0.015,-0.042,1.017,17.456,-35.095,2.686
-0.041,0.044,1.241,13.489,-5.371,2.380
-0.035,-0.040,1.217,-0.854,11.292,0.732
-0.009,0.011,1.188,-17.944,29.358,0.000
0.024,-0.000,0.821,-16.541,41.565,1.099
0.006,-0.007,0.525,-8.911,29.602,2.258
0.010,0.031,0.966,4.089,-10.742,3.784
0.002,-0.001,0.802,7.996,-6.165,2.563
-0.003,-0.001,0.899,8.728,-7.446,2.136
-0.016,0.000,1.004,9.460,-11.047,1.770
-0.035,-0.011,1.076,11.719,-12.085,1.953
-0.042,-0.011,1.099,12.207,-13.611,2.563
-0.033,0.013,1.144,8.728,-11.169,3.784
-0.031,-0.006,1.013,0.854,4.395,2.014
-0.025,-0.003,0.963,-3.784,13.428,1.160
-0.016,0.004,0.951,-3.052,11.292,2.258
-0.011,0.004,0.914,-2.686,10.559,1.953
-0.009,0.000,0.862,-2.258,9.888,1.648
-0.017,-0.002,0.922,2.014,2.380,2.075
-0.053,-0.008,1.135,5.920,-6.165,2.869
-0.057,0.075,1.436,7.446,-13.489,5.127
-0.097,0.004,2.077,-9.827,-2.563,2.686
-0.099,0.009,2.151,-23.682,48.706,5.981
-0.104,-0.067,1.301,-55.725,127.991,-5.249
-0.039,0.014,0.317,-32.043,188.782,-3.967
0.076,-0.015,-0.235,-21.057,164.978,-4.944
0.161,0.101,0.055,-5.554,53.528,3.662
0.137,0.008,0.306,10.559,-23.804,4.822
0.095,0.009,0.302,21.606,-33.569,4.395
0.072,0.018,0.155,18.311,-24.292,3.479
0.035,-0.013,0.307,7.263,-45.959,3.967
0.061,-0.029,0.489,-4.883,-74.890,3.540
0.013,0.049,0.457,-4.822,-88.745,5.615
-0.066,0.145,1.256,7.446,-107.300,4.578
0.033,0.042,1.267,141.479,-192.444,10.437
-0.249,-0.196,1.115,152.100,-37.231,11.963
-0.123,-0.005,1.107,0.244,-10.193,-2.686
-0.022,-0.069,1.065,-28.198,-11.597,2.075
-0.169,-0.188,1.503,59.387,-39.734,0.488
-0.026,0.033,1.002,-4.883,41.077,1.770
0.018,-0.010,0.422,-8.728,14.893,4.822
0.014,0.027,0.712,-1.526,-2.930,3.113
-0.053,-0.019,1.021,13.123,-30.090,2.686
-0.060,-0.029,1.219,19.531,-10.498,1.770
-0.054,0.010,1.233,5.737,-0.244,3.601
-0.030,-0.009,1.254,-18.860,26.917,-0.977
0.008,-0.012,0.969,-19.043,40.894,0.671
0.036,0.008,0.450,-16.724,51.025,2.014
0.012,0.009,0.820,0.916,1.953,3.174
0.007,0.028,0.941,9.155,-17.395,3.601
-0.001,-0.011,0.839,8.545,-5.737,1.709
-0.009,-0.001,0.955,8.362,-8.972,1.831
-0.026,0.002,1.037,12.329,-15.503,2.441
-0.037,-0.014,1.104,15.381,-17.944,2.808
-0.035,0.008,1.147,9.583,-11.597,3.418
-0.035,-0.010,1.017,1.648,3.296,1.587
-0.028,-0.002,1.013,-0.610,7.385,1.648
-0.019,0.001,0.990,-1.831,8.972,2.136
-0.011,0.009,0.944,-3.601,12.268,1.953
-0.007,0.003,0.884,-4.578,13.550,1.709
-0.012,-0.002,0.841,-1.953,9.705,1.892
-0.045,-0.009,1.113,3.723,-2.441,2.869
-0.085,0.100,1.539,7.446,-17.212,5.371
-0.111,-0.025,2.476,-13.794,-5.493,2.747
-0.078,0.214,2.157,-65.186,73.792,1.221
-0.104,-0.084,0.667,-50.720,199.463,-11.169
0.014,-0.039,-0.405,-37.903,223.389,-7.263
0.208,0.125,-0.078,-14.404,84.961,2.258
0.143,0.005,0.494,11.169,-32.593,6.470
0.107,0.069,0.409,33.569,-40.894,4.944
0.062,-0.029,0.170,22.095,-5.554,4.089
0.053,-0.001,0.267,9.277,-28.198,3.052
0.047,0.009,0.413,-7.019,-51.270,4.028
0.067,0.038,0.387,-10.132,-66.284,3.967
-0.011,0.016,0.437,1.343,-90.393,5.981
-0.087,-0.208,1.940,43.884,-156.677,6.531
-0.143,0.227,1.560,207.153,-153.625,20.508
-0.205,-0.211,1.162,69.702,-5.554,-1.709
-0.079,-0.020,1.033,-25.635,-10.254,1.526
-0.009,-0.075,0.980,-21.606,-9.521,-0.244
-0.036,-0.042,0.620,-1.221,8.545,0.977
-0.065,-0.033,1.073,6.470,2.930,3.296
-0.070,0.008,1.288,1.038,-0.183,3.235
-0.024,0.047,1.223,-24.536,35.278,-0.793
-0.019,-0.062,1.092,-32.532,60.303,-1.221
0.034,0.020,0.655,-29.541,63.354,1.099
0.048,0.028,0.761,-9.216,22.827,4.333
0.012,0.009,0.680,5.371,-2.747,3.052
0.016,0.002,0.678,10.620,-6.531,2.808
0.008,0.008,0.800,7.996,-12.634,2.319
-0.005,0.011,0.968,11.292,-18.982,1.953
-0.028,-0.005,1.082,16.113,-19.958,1.526
-0.052,-0.029,1.130,18.188,-20.752,1.892
-0.042,0.022,1.255,18.372,-26.062,4.456
-0.041,-0.007,1.159,4.333,-8.362,2.441
-0.039,-0.025,1.013,-2.441,13.428,0.793
-0.051,-0.019,1.152,-7.568,16.663,3.235
-0.061,0.078,1.480,-10.437,13.062,4.150
-0.115,-0.124,2.280,-23.071,17.639,-1.038
-0.122,0.268,2.531,-61.096,65.186,2.441
-0.010,-0.118,0.782,-57.983,173.889,-9.521
-0.069,-0.113,-0.519,-45.471,264.709,-12.451
0.206,0.028,-0.195,-19.409,124.329,-1.770
0.154,0.096,0.652,-7.019,-14.099,8.423
0.117,0.048,0.645,33.508,-40.649,4.395
0.093,-0.027,0.090,12.146,36.316,2.686
0.083,-0.024,-0.036,15.503,5.127,1.221
0.077,-0.008,0.095,0.488,-35.767,4.456
0.080,0.036,0.161,-1.282,-64.575,7.141
0.040,0.008,0.305,4.700,-101.624,8.179
-0.014,0.078,0.547,9.094,-143.311,9.033
-0.264,-0.093,2.343,41.443,-181.580,7.935
-0.190,0.080,1.542,266.113,-141.602,21.179
-0.313,-0.317,0.659,93.872,14.038,-0.305
-0.106,-0.018,1.118,-36.316,-31.555,-2.380
0.028,-0.088,0.998,-34.424,-14.954,-1.038
-0.029,-0.031,0.646,-8.179,3.479,-1.648
-0.062,-0.013,1.157,9.521,4.150,3.174
-0.071,-0.012,1.258,9.033,-2.686,3.967
-0.031,-0.019,1.261,-19.348,31.006,-1.343
-0.037,-0.010,1.221,-36.804,56.519,-0.122
0.018,-0.046,0.838,-35.828,66.345,-1.160
0.052,0.010,0.608,-15.625,42.114,4.822
0.014,0.008,0.800,2.197,-0.977,4.639
0.019,0.004,0.617,10.315,0.061,1.892
0.018,-0.003,0.648,7.629,-7.385,2.563
0.008,0.008,0.804,4.700,-14.160,1.892
-0.010,0.003,1.062,13.733,-25.146,1.831
-0.040,-0.022,1.142,20.386,-23.132,1.404
-0.061,-0.040,1.224,20.569,-24.170,2.258
-0.045,-0.009,1.251,16.968,-21.484,4.456
-0.042,-0.025,1.113,1.160,-0.488,2.258
-0.032,-0.016,0.986,-8.484,18.799,1.038
-0.017,-0.008,0.901,-9.460,22.339,2.502
-0.007,-0.007,0.865,-7.141,19.409,2.136
0.003,-0.004,0.873,-4.639,14.648,2.197
-0.009,-0.008,0.977,0.061,5.859,2.380
-0.044,-0.023,1.221,2.563,-0.244,2.747
-0.073,0.008,1.421,5.859,-2.136,4.761
-0.094,-0.115,2.160,-17.395,2.258,3.052
-0.055,-0.015,1.535,-67.505,73.120,-1.282
-0.016,0.058,0.825,-23.865,136.902,-3.601
0.032,-0.109,0.151,-18.005,138.550,-0.610
0.134,0.059,0.054,-3.784,84.106,0.000
0.108,0.024,0.205,6.165,17.273,4.089
0.106,0.008,0.294,11.719,-13.855,3.784
0.078,0.016,0.276,13.611,-26.611,3.540
0.053,-0.009,0.349,13.428,-49.622,3.845
0.046,0.015,0.346,6.531,-67.871,3.235
-0.001,0.035,0.545,-1.465,-91.553,4.456
-0.089,0.118,1.523,8.118,-110.657,3.052
-0.130,0.005,1.532,103.821,-155.945,5.066
-0.221,-0.146,1.196,98.511,-17.883,9.766
-0.093,0.007,1.239,-0.671,-5.554,0.244
-0.006,-0.015,1.055,-19.226,-9.949,3.235
-0.036,-0.072,0.607,-13.062,20.142,1.465
-0.054,-0.008,1.002,0.854,11.047,2.930
-0.154,0.407,2.828,-88.867,58.533,3.967
-0.158,-0.097,0.852,-83.252,202.881,-11.658
-0.007,-0.116,-0.701,-44.983,267.090,-16.052
0.186,0.049,0.048,-28.931,105.286,-1.404
0.143,0.164,1.255,9.277,-62.195,13.611
0.105,0.005,0.842,38.574,-24.170,13.062
0.061,-0.078,0.104,3.479,86.792,-4.883
0.105,-0.039,0.009,5.920,44.678,-0.793
0.121,0.007,0.235,-5.798,-16.174,4.517
0.078,0.002,0.059,7.568,-42.786,5.554
0.063,-0.032,-0.176,25.452,-57.495,6.531
0.023,0.074,0.164,31.006,-115.540,11.597
-0.025,-0.008,0.795,18.066,-178.772,11.536
-0.063,0.279,1.901,10.071,-165.344,7.751
-0.094,0.400,2.698,210.754,-148.132,8.667
-0.310,-0.274,0.680,171.387,23.376,-3.235
-0.150,-0.034,1.506,-19.531,-27.405,-3.845
0.025,-0.057,1.240,-39.856,-30.762,2.747
-0.020,-0.059,0.701,-25.452,20.447,-3.601
-0.048,-0.005,0.642,-3.601,30.579,0.916
-0.040,-0.043,1.150,0.488,-0.488,1.221
-0.018,0.001,1.209,-11.169,16.235,-2.380
-0.019,-0.011,1.117,-25.024,46.326,0.061
0.018,-0.026,0.847,-26.001,49.255,-0.732
0.042,0.005,0.783,-5.310,14.893,4.822
0.000,-0.007,0.858,1.404,-2.686,3.601
0.012,0.003,0.726,8.667,-3.906,3.174
0.005,-0.009,0.781,7.690,-6.226,2.441
0.000,0.001,0.862,7.690,-9.583,2.014
-0.017,-0.008,1.018,11.658,-14.465,1.526
-0.036,-0.023,1.137,13.794,-14.282,1.221
-0.045,-0.020,1.182,11.230,-12.268,2.136
-0.038,-0.026,1.114,6.042,-5.920,2.563
-0.033,-0.020,1.061,0.854,1.831,2.808
-0.023,-0.011,0.995,-2.686,9.277,2.991
-0.017,-0.009,0.941,-4.761,14.893,2.380
-0.028,-0.005,1.079,-6.653,16.846,2.258
-0.032,-0.015,1.252,-6.775,19.043,2.625
-0.043,-0.058,1.441,-5.249,23.010,4.028
-0.028,0.110,1.875,-1.709,18.494,11.108
-0.037,0.044,1.649,-15.503,57.312,6.226
-0.004,-0.031,1.077,-24.597,104.492,-2.808
0.019,-0.023,0.258,-1.526,125.488,-3.479
0.086,-0.021,0.005,8.545,90.576,-1.099
0.124,0.017,0.106,8.850,23.560,4.333
0.114,0.011,0.072,7.019,-2.136,3.662
0.079,-0.010,0.144,8.301,-23.804,3.357
0.041,-0.001,0.305,6.592,-51.208,3.540
0.030,-0.050,0.507,0.488,-74.219,3.174
0.021,0.028,0.673,-10.559,-79.773,2.380
-0.015,0.037,0.777,-10.864,-81.726,1.526
-0.094,0.087,2.810,39.551,-133.728,4.089
-0.200,-0.104,1.409,113.831,-99.426,8.423
-0.119,-0.115,0.725,18.799,23.437,-4.333
-0.047,-0.010,1.314,-10.925,-46.875,5.554
-0.021,-0.048,0.890,-13.550,6.287,0.549
-0.045,-0.037,0.601,-1.160,23.804,0.977
-0.052,-0.061,1.119,5.981,-3.235,3.601
-0.060,-0.024,1.213,-4.761,10.010,2.014
-0.027,0.033,1.153,-22.583,39.978,0.183
0.000,-0.041,1.074,-26.123,47.913,0.305
0.013,-0.006,0.739,-21.423,42.908,1.953
0.039,0.019,0.846,-6.165,13.672,4.089
0.010,-0.001,0.658,5.859,2.869,3.235
0.020,-0.002,0.651,8.179,-3.052,2.563
0.011,0.008,0.755,4.883,-8.789,2.075
-0.002,0.003,0.990,9.583,-17.334,1.648
-0.024,-0.015,1.079,16.357,-19.470,1.221
-0.053,-0.037,1.178,16.541,-19.775,1.770
-0.044,-0.016,1.194,17.517,-21.179,3.479
-0.041,-0.015,1.169,7.874,-10.620,3.540
-0.034,-0.023,1.030,-3.784,10.254,1.709
-0.020,-0.001,0.949,-8.972,21.057,2.136
-0.012,-0.018,0.849,-8.972,23.071,1.831
-0.017,-0.004,1.002,-6.531,16.479,2.075
-0.040,-0.008,1.204,-2.991,10.620,2.930
-0.049,-0.015,1.434,2.380,5.310,4.700
-0.079,0.006,2.091,-14.343,8.972,8.545
-0.049,-0.004,1.424,-41.138,76.538,0.244
-0.012,0.047,0.849,-16.907,123.901,-4.333
0.045,-0.026,0.240,-12.695,121.277,-3.235
0.102,0.017,0.163,1.343,73.608,0.732
0.106,0.007,0.176,7.812,25.513,2.991
0.110,0.017,0.191,11.108,-1.526,3.479
0.082,0.000,0.192,16.846,-30.701,3.723
0.054,-0.022,0.264,12.878,-51.025,3.540
0.036,-0.008,0.476,3.235,-79.956,4.272
-0.003,0.015,0.641,-1.892,-90.759,3.479
-0.055,0.110,1.385,-3.418,-90.332,2.197
-0.240,0.311,2.591,75.256,-151.855,6.897
-0.217,-0.146,1.243,89.661,-35.034,3.601
-0.098,-0.033,1.138,2.319,5.493,-1.160
-0.009,0.022,1.192,-10.803,-35.339,5.920
-0.042,-0.049,0.893,-9.399,12.329,0.427
-0.037,-0.001,0.660,-2.258,30.701,1.282
-0.061,-0.062,1.143,4.700,-1.709,3.418
-0.021,0.036,1.174,-7.996,13.855,2.747
-0.019,-0.016,1.096,-22.888,44.434,-0.366
-0.001,-0.027,0.929,-24.231,48.462,0.183
0.034,0.007,0.805,-11.841,25.696,2.808
0.010,0.009,0.757,0.305,2.808,3.540
0.011,0.001,0.737,7.690,-4.272,2.930
0.007,-0.001,0.776,8.423,-7.751,2.441
-0.004,0.001,0.894,8.179,-11.902,1.953
-0.018,-0.003,1.024,12.268,-15.198,1.526
-0.036,-0.016,1.127,14.160,-14.893,1.587
-0.047,-0.025,1.130,12.573,-13.306,2.319
-0.038,-0.013,1.151,10.864,-13.000,3.662
-0.031,-0.012,1.106,2.808,-1.892,3.235
-0.040,-0.016,1.117,-5.249,13.306,2.014
-0.042,0.000,1.312,-8.118,17.944,3.296
-0.056,-0.016,1.627,-15.198,23.132,3.662
-0.094,-0.078,2.102,-21.545,36.316,4.333
-0.083,0.033,1.571,-54.871,98.755,-0.854
-0.055,0.098,0.635,-28.137,169.128,-6.409
0.029,-0.052,-0.218,-25.024,184.387,-9.094
0.172,0.091,-0.030,-11.047,86.304,2.014
0.137,0.015,0.323,1.587,-9.277,5.310
0.114,0.026,0.389,19.287,-31.250,4.456
-0.165,-0.226,0.777,56.885,10.376,-1.160
-0.047,0.049,1.062,-10.742,-15.381,3.723
-0.008,0.003,1.102,-2.258,-39.124,4.272
-0.054,-0.066,0.742,-5.371,10.681,-0.977
-0.057,0.009,0.961,7.751,16.235,1.587
-0.073,0.018,1.305,16.418,-20.081,4.761
-0.031,-0.013,1.373,-15.625,17.578,-1.892
-0.035,-0.025,1.215,-32.471,56.519,0.122
0.027,0.005,0.758,-32.654,74.951,-0.244
0.039,-0.002,0.531,-15.137,44.556,4.150
0.014,0.005,0.831,3.296,-6.958,4.089
0.020,0.003,0.647,9.399,-4.700,2.380
0.013,0.002,0.745,8.545,-10.986,2.380
-0.003,0.003,0.962,9.705,-17.700,2.075
-0.021,-0.002,1.069,15.808,-20.447,1.770
-0.048,-0.019,1.137,16.174,-17.578,1.648
-0.048,-0.015,1.150,15.869,-18.616,3.052
-0.038,-0.001,1.194,10.681,-14.709,4.089
-0.046,-0.026,1.070,-0.549,5.127,2.014
-0.055,0.007,1.234,-4.944,12.329,2.869
-0.072,0.025,1.434,-11.353,17.822,4.028
-0.081,-0.015,2.048,-20.569,26.550,2.014
-0.077,0.229,2.221,-42.664,64.392,5.371
-0.003,-0.050,0.827,-49.744,153.137,-6.653
-0.028,-0.144,-0.152,-39.612,216.553,-10.742
0.187,0.072,-0.116,-15.930,119.751,-1.892
0.132,0.026,0.441,0.671,-1.160,5.676
0.103,0.057,0.638,24.475,-34.668,4.700
0.082,-0.026,0.196,12.939,12.939,3.235
0.087,0.019,0.106,7.751,1.221,1.587
0.058,-0.003,0.287,-2.441,-37.659,3.845
0.049,0.037,0.411,-2.502,-64.270,5.798
0.005,-0.010,0.568,1.099,-91.736,5.066
0.003,0.072,0.989,2.380,-109.436,6.287
-0.137,-0.369,1.908,41.138,-133.301,5.310
-0.184,0.147,2.440,119.873,-155.884,17.517
-0.119,-0.151,1.153,38.513,19.165,-5.127
0.027,0.020,0.691,-12.329,10.742,4.089
-0.021,-0.016,0.834,-5.005,-8.423,3.601
-0.041,0.007,0.973,5.676,-13.000,1.526
-0.043,-0.011,1.010,12.695,-4.456,1.160
-0.060,0.007,1.173,12.329,-2.319,2.930
-0.036,0.005,1.312,-11.292,13.123,1.282
-0.011,-0.008,1.141,-26.062,40.955,-0.671
0.022,-0.011,0.628,-23.193,62.012,-0.305
0.025,0.008,0.590,-7.874,26.672,3.662
0.007,0.022,0.873,3.967,-10.986,3.662
0.005,0.001,0.767,9.216,-5.493,2.502
-0.000,0.005,0.871,9.277,-11.047,2.197
-0.011,0.006,0.983,10.620,-14.038,2.014
-0.032,-0.006,1.097,13.245,-14.771,1.831
-0.044,-0.017,1.086,13.916,-14.771,2.258
-0.036,0.010,1.162,12.268,-15.747,3.906
-0.036,-0.002,1.070,4.089,-2.563,2.930
-0.036,-0.014,1.001,-2.686,11.169,1.221
-0.044,-0.004,1.115,-4.333,11.658,2.869
-0.056,0.012,1.305,-5.981,15.198,3.906
-0.057,0.025,1.476,-11.475,23.865,2.319
-0.043,0.065,1.894,-14.465,26.306,2.075
-0.054,-0.053,1.423,-14.832,75.562,1.709
-0.010,0.096,0.559,-23.071,151.733,-1.343
0.064,-0.037,-0.028,-24.353,155.273,-5.615
0.128,0.074,0.151,-4.700,48.950,4.456
0.101,-0.005,0.343,13.000,-18.677,3.784
0.078,0.013,0.385,19.653,-30.823,4.333
0.051,0.004,0.407,12.817,-32.288,3.418
0.033,-0.023,0.515,0.366,-42.114,2.808
0.044,0.025,0.554,-7.202,-54.321,2.991
0.014,0.019,0.580,-4.700,-65.186,3.296
-0.074,0.031,1.498,16.724,-96.802,3.479
-0.059,0.113,2.635,87.646,-167.786,8.362
-0.127,-0.045,1.141,62.317,-22.461,7.324
-0.058,0.026,0.898,5.737,9.827,0.000
-0.029,0.018,1.126,2.197,-38.330,3.784
-0.055,-0.048,0.988,0.000,-4.089,2.197
-0.051,-0.002,0.841,-1.892,25.330,0.610
-0.069,-0.047,1.104,3.662,6.165,2.625
-0.015,0.050,1.250,-13.245,17.761,3.235
-0.014,-0.019,1.068,-25.391,45.471,-0.122
0.015,-0.025,0.698,-25.269,56.030,-0.366
0.033,0.015,0.812,-8.728,20.813,3.052
0.007,0.009,0.726,3.052,-0.916,3.113
0.011,0.007,0.764,8.972,-7.263,2.808
-0.001,0.005,0.854,9.277,-11.414,2.319
-0.012,0.004,0.967,10.986,-14.465,2.075
-0.029,-0.005,1.086,13.000,-15.076,1.831
-0.043,-0.013,1.080,13.672,-14.709,2.075
-0.039,-0.002,1.132,12.939,-16.235,3.235
-0.038,-0.006,1.110,6.897,-7.385,3.174
-0.039,-0.014,1.025,-0.671,6.775,2.136
-0.044,0.003,1.125,-4.150,11.047,2.747
-0.079,-0.005,1.336,-6.958,14.709,3.418
-0.071,0.071,1.697,-13.855,17.944,4.028
-0.080,0.203,2.310,-32.410,32.654,1.465
-0.050,-0.097,0.987,-48.218,133.667,-4.578
-0.026,-0.167,-0.088,-41.626,207.458,-8.179
0.183,0.080,-0.028,-17.578,118.225,-2.075
0.117,0.047,0.364,3.784,-1.038,6.470
0.100,0.012,0.467,28.259,-39.917,3.845
0.064,0.003,0.284,21.973,-12.634,4.578
0.056,0.006,0.385,8.667,-25.269,2.869
0.060,-0.009,0.503,-4.944,-42.725,2.869
0.059,0.039,0.445,-8.545,-51.575,2.930
0.009,0.013,0.485,-1.038,-69.763,4.150
-0.071,0.050,1.517,23.621,-117.920,5.310
-0.167,0.204,2.090,112.122,-178.894,13.733
-0.185,-0.187,1.072,73.608,-4.822,5.005
-0.074,0.021,1.104,-0.427,-4.578,1.099
-0.017,0.011,1.097,-2.625,-32.410,3.845
-0.057,-0.029,0.899,-6.409,8.789,0.916
-0.042,0.024,0.940,0.488,19.775,1.160
-0.071,-0.013,1.184,7.629,-1.099,3.174
-0.021,0.035,1.258,-14.771,19.043,1.953
-0.019,-0.026,1.078,-26.672,49.500,-0.977
0.014,-0.015,0.681,-27.039,60.242,-0.305
0.032,0.023,0.744,-8.423,22.705,2.930
0.003,0.015,0.755,3.723,-4.150,3.357
0.006,0.011,0.780,10.010,-8.118,3.113
-0.004,0.006,0.863,9.827,-11.719,2.686
-0.091,0.117,1.941,-77.026,60.181,7.507
-0.090,-0.001,0.959,-28.259,149.048,-4.639
-0.006,-0.091,0.038,-28.870,187.927,-5.920
0.159,0.023,-0.149,-12.085,129.272,0.244
0.133,0.032,0.147,1.831,19.287,6.165
0.167,0.062,0.283,17.517,-34.729,7.019
0.115,0.019,0.192,25.452,-34.485,5.188
0.077,-0.008,0.059,27.588,-50.415,3.967
0.028,-0.027,0.388,9.888,-78.430,4.089
0.012,0.021,0.714,-0.244,-106.140,4.089
-0.025,0.081,0.789,-6.104,-94.238,3.784
-0.217,-0.072,2.208,62.256,-148.743,3.235
-0.214,-0.071,1.365,161.133,-77.454,15.686
-0.133,-0.155,1.037,13.123,19.470,-5.554
-0.034,-0.009,1.109,-22.949,-14.099,3.174
-0.025,-0.076,0.726,-11.902,3.052,1.892
-0.038,-0.014,0.832,-1.465,11.780,1.831
-0.055,-0.009,1.127,3.357,5.432,3.296
-0.040,-0.005,1.064,-4.822,18.677,0.671
-0.023,-0.020,1.177,-20.752,34.241,0.000
-0.009,-0.021,1.069,-22.278,39.001,0.366
0.029,0.009,0.729,-15.381,32.593,1.343
0.015,0.008,0.773,-1.709,6.470,3.967
0.007,0.011,0.738,7.080,-4.395,3.174
0.004,-0.003,0.774,9.766,-7.568,2.625
-0.000,0.005,0.873,7.874,-11.047,2.380
-0.015,-0.002,0.984,10.620,-14.099,1.587
-0.033,-0.018,1.103,13.489,-14.954,1.282
-0.043,-0.018,1.181,12.756,-13.306,2.075
-0.039,-0.024,1.143,7.812,-7.629,2.563
-0.033,-0.018,1.095,1.526,0.610,2.808
-0.022,-0.008,1.004,-2.625,9.216,2.747
-0.019,-0.015,0.959,-5.493,15.381,2.441
-0.057,-0.006,1.266,-8.423,16.907,2.686
-0.130,0.095,1.728,-4.700,4.150,5.676
-0.075,0.317,2.733,-58.777,12.146,3.479
-0.039,-0.114,1.214,-96.619,126.587,-1.038
-0.087,-0.116,-0.202,-49.011,249.756,-12.146
0.152,-0.016,-0.254,-19.226,151.489,-1.770
0.130,0.100,0.297,-9.583,14.038,6.470
0.113,-0.027,0.601,34.180,-59.265,6.531
0.082,0.019,0.176,24.658,-0.854,7.263
0.117,0.018,0.078,17.151,-5.493,4.211
0.112,0.062,0.274,1.953,-50.049,6.042
0.060,-0.025,0.380,-6.287,-70.251,3.662
0.016,0.047,0.374,-2.502,-86.548,5.066
-0.014,0.179,1.395,11.169,-123.352,5.859
0.027,0.057,1.007,165.161,-200.439,12.085
-0.261,-0.196,1.200,158.875,-36.255,11.841
-0.137,-0.097,1.080,0.549,-5.737,-5.310
-0.009,0.011,1.074,-25.085,-17.456,2.930
-0.043,-0.107,0.677,-11.353,5.432,0.000
-0.045,-0.005,0.951,5.005,9.216,1.404
-0.062,-0.000,1.199,10.559,-8.240,3.906
-0.064,-0.055,1.302,-11.780,19.775,-0.793
-0.035,0.019,1.216,-30.212,47.974,-0.366
-0.001,-0.052,1.042,-33.936,61.584,-1.099
0.029,0.012,0.579,-23.926,51.758,2.808
0.023,0.017,0.808,-0.793,6.470,4.517
0.009,0.006,0.631,8.606,0.610,2.502
0.015,-0.000,0.665,8.240,-6.531,2.563
0.005,0.005,0.773,5.432,-12.085,2.136
-0.008,0.006,1.043,11.963,-22.095,1.831
-0.035,-0.018,1.114,19.226,-22.461,1.404
-0.057,-0.040,1.191,18.555,-21.545,2.075
-0.042,-0.016,1.210,17.395,-21.118,3.906
-0.037,-0.015,1.138,4.639,-6.165,3.113
-0.028,-0.021,1.009,-5.920,13.733,1.465
-0.016,-0.003,0.931,-9.521,21.667,2.258
-0.005,-0.015,0.866,-8.179,20.630,1.770
-0.014,-0.002,1.003,-5.432,14.954,2.319
-0.056,-0.016,1.284,-1.587,8.118,3.174
-0.074,0.081,1.622,2.441,-1.831,5.981
-0.063,0.232,2.290,-33.508,10.559,1.465
-0.073,-0.103,1.237,-57.861,106.506,-2.197
-0.065,-0.123,0.287,-35.156,177.307,-1.221
0.150,0.030,-0.074,-20.081,139.038,-1.648
0.122,0.061,0.208,-5.188,30.945,5.859
0.114,0.023,0.383,21.545,-41.016,6.775
0.067,0.016,0.438,22.705,-36.743,4.883
0.062,-0.015,0.465,14.160,-38.269,3.723
0.056,0.001,0.460,-0.488,-41.260,3.296
0.037,0.022,0.500,-8.911,-52.429,2.808
0.006,0.049,0.684,-2.197,-71.838,2.991
-0.032,-0.090,1.888,48.401,-131.958,3.601
-0.162,0.005,2.070,100.220,-135.986,10.620
-0.135,-0.164,0.808,36.072,23.499,0.793
-0.037,-0.058,1.040,-4.456,-13.000,2.319
-0.022,-0.021,0.959,0.183,-19.897,2.869
-0.052,-0.051,0.823,-3.296,8.057,0.916
-0.061,-0.030,1.070,4.456,8.301,2.380
-0.058,0.002,1.184,4.944,3.052,2.930
-0.028,0.020,1.238,-18.433,30.518,1.038
-0.009,-0.013,1.055,-25.085,46.692,-0.183
0.021,0.004,0.624,-24.292,51.025,0.305
0.025,0.019,0.765,-4.944,14.465,3.296
0.005,0.011,0.710,5.493,-3.357,2.930
0.005,0.006,0.799,9.888,-9.216,2.686
-0.004,0.009,0.903,9.827,-13.184,2.197
-0.015,0.004,0.994,11.902,-15.137,1.892
-0.031,-0.005,1.096,13.367,-15.076,1.831
-0.044,-0.016,1.086,13.000,-13.611,2.258
-0.036,-0.005,1.134,12.634,-15.564,3.662
-0.033,-0.006,1.128,6.104,-6.531,3.479
-0.026,-0.005,1.008,-2.930,10.925,2.136
-0.014,0.000,0.954,-6.409,16.785,2.075
-0.006,0.000,0.898,-6.897,18.372,1.648
-0.002,-0.004,0.847,-4.700,15.381,1.587
-0.001,0.001,0.911,1.038,4.578,2.319
-0.007,-0.002,0.936,4.333,-1.526,2.380
-0.010,-0.000,0.957,5.188,-4.211,2.380
-0.029,-0.008,1.024,5.005,-4.333,2.380
-0.100,-0.042,1.250,7.812,-8.667,3.540
-0.033,0.033,1.950,-0.610,-18.066,6.042
-0.092,0.103,2.226,-28.809,28.015,0.183
-0.130,-0.128,1.193,-44.556,126.587,-3.967
-0.054,-0.085,0.348,-41.260,175.171,-1.587
0.159,0.060,0.006,-16.846,122.559,-0.488
0.148,0.088,0.262,-0.977,39.307,4.089
-0.032,-0.018,1.441,-84.656,107.239,0.061
-0.120,-0.143,0.258,-43.823,221.741,-11.841
0.116,-0.039,-0.285,-22.705,177.124,-6.104
0.141,0.115,0.161,-11.780,45.471,5.432
0.122,-0.036,0.619,25.635,-56.641,5.737
0.086,0.041,0.291,27.039,-18.982,6.836
0.083,0.007,0.129,16.907,-5.188,3.540
0.116,0.031,0.307,2.869,-41.199,5.066
0.062,0.008,0.399,-6.042,-63.110,4.517
0.026,0.039,0.339,-3.052,-78.430,4.150
-0.014,0.122,1.030,8.362,-115.173,5.432
0.014,-0.013,1.811,121.582,-202.820,10.193
-0.235,-0.184,1.170,166.687,-68.420,13.489
-0.135,-0.125,1.056,10.437,-3.784,-10.193
-0.023,-0.004,1.098,-21.606,-23.193,3.418
-0.035,-0.068,0.803,-12.146,0.366,0.183
-0.037,-0.025,0.761,3.296,11.047,-0.244
-0.058,0.016,1.180,11.536,-8.240,4.150
-0.087,-0.106,1.321,-6.653,10.864,-0.793
-0.031,0.062,1.228,-28.870,44.373,-0.671
-0.013,-0.063,1.096,-35.889,63.232,-0.916
0.030,0.033,0.534,-28.137,62.866,2.014
0.039,0.051,0.840,-3.174,13.367,5.188
0.007,0.001,0.623,7.935,-2.136,2.808
0.014,-0.000,0.687,9.094,-5.493,2.625
0.006,0.003,0.713,5.554,-11.230,2.319
-0.003,0.009,1.026,9.827,-21.362,1.953
-0.030,-0.011,1.089,19.165,-23.743,1.831
-0.057,-0.037,1.180,19.531,-22.339,1.892
-0.041,-0.006,1.231,19.348,-24.414,3.906
-0.033,-0.031,1.008,-5.432,14.038,0.305
-0.018,-0.001,0.935,-8.972,20.935,2.380
-0.008,-0.005,0.898,-7.385,19.287,2.014
-0.001,-0.007,0.863,-6.042,16.663,1.709
0.001,-0.001,0.906,-1.038,8.179,2.197
-0.003,-0.006,0.923,3.357,0.610,2.380
-0.026,-0.012,1.042,4.333,-3.784,2.380
-0.083,-0.026,1.295,5.920,-6.592,3.784
-0.080,-0.233,2.029,-0.183,-15.442,6.409
-0.081,0.341,2.559,-69.885,27.588,5.981
-0.100,-0.104,1.006,-71.899,152.893,-5.798
0.003,-0.102,-0.274,-48.462,219.238,-7.629
0.209,0.049,-0.071,-22.888,125.183,1.221
0.126,0.062,0.386,2.991,-7.324,7.202
0.121,0.048,0.557,37.109,-51.941,4.883
0.061,-0.003,0.300,23.254,-8.179,5.554
0.058,-0.004,0.362,11.902,-24.292,2.930
0.077,-0.006,0.454,-5.676,-36.377,2.991
0.076,0.036,0.361,-9.094,-49.805,3.845
0.017,0.037,0.364,0.305,-70.679,4.883
-0.055,0.061,1.531,28.870,-128.845,5.005
-0.096,0.337,1.752,150.940,-189.819,13.916
-0.238,-0.271,0.910,87.158,-4.700,3.845
-0.073,-0.034,1.301,-2.625,-21.057,-1.892
-0.007,-0.015,0.977,-11.963,-17.822,3.906
-0.059,-0.070,0.694,-10.315,11.597,-1.282
-0.048,0.003,1.094,5.127,5.493,2.991
-0.070,0.014,1.196,8.179,-0.610,3.906
-0.029,0.003,1.212,-17.090,29.114,-0.916
-0.021,-0.011,1.130,-31.250,49.866,-0.916
0.007,-0.033,0.807,-32.104,61.584,-0.793
0.040,0.024,0.643,-12.878,32.776,3.784
0.003,0.007,0.728,4.211,-2.747,3.540
0.008,0.008,0.708,10.803,-7.629,2.991
0.001,0.005,0.819,9.399,-12.939,2.686
-0.008,0.007,0.947,11.230,-17.395,2.136
-0.026,-0.003,1.080,14.709,-18.250,1.709
-0.045,-0.022,1.101,15.808,-17.761,2.014
-0.042,-0.012,1.162,16.113,-19.714,3.479
-0.036,-0.005,1.155,7.629,-10.193,3.662
-0.033,-0.024,1.016,-1.465,8.789,1.221
-0.020,0.001,0.988,-4.883,13.489,2.441
-0.008,0.002,0.942,-5.920,15.991,2.319
-0.005,-0.004,0.863,-7.996,20.325,1.648
0.004,-0.002,0.883,-3.235,12.817,1.831
-0.025,-0.008,1.049,2.075,1.221,2.625
-0.092,0.012,1.372,6.470,-7.935,4.211
-0.125,-0.222,2.360,-6.531,-19.531,5.676
-0.132,0.269,2.275,-83.008,50.659,3.113
-0.230,-0.147,0.661,-71.960,209.412,-9.277
0.063,0.002,-0.233,-38.208,202.881,-4.822
0.181,0.153,0.120,-21.606,74.158,4.944
0.124,-0.001,0.689,22.156,-48.706,7.202
0.101,0.088,0.454,38.391,-33.447,7.324
0.106,0.023,0.306,19.165,-4.028,4.578
0.057,-0.028,0.324,8.423,-28.931,2.625
0.070,-0.002,0.382,-6.531,-37.781,2.930
0.050,0.039,0.346,-6.836,-56.641,3.845
0.001,0.038,0.542,3.174,-88.562,4.883
-0.032,0.026,1.965,52.246,-156.982,6.226
-0.222,0.071,1.728,177.979,-137.146,12.451
-0.169,-0.187,0.957,49.500,10.559,1.831
-0.041,-0.068,1.111,-14.038,-21.606,2.197
-0.012,-0.016,0.943,-7.446,-14.282,2.197
-0.050,-0.041,0.719,-7.202,14.404,0.366
-0.057,-0.025,1.091,7.446,3.235,2.625
-0.071,-0.012,1.210,4.944,3.052,2.747
-0.029,0.025,1.234,-22.034,34.241,-0.061
-0.015,-0.013,1.077,-30.273,51.758,-0.732
0.027,-0.004,0.630,-28.931,59.204,-0.244
0.033,0.028,0.710,-6.470,20.020,3.357
0.003,0.012,0.706,6.653,-5.920,3.113
0.006,0.007,0.738,10.803,-9.094,2.991
-0.002,0.008,0.876,9.644,-14.526,2.502
-0.013,0.006,0.983,12.695,-17.456,1.892
-0.036,-0.012,1.104,15.320,-18.005,1.648
-0.048,-0.018,1.124,16.785,-19.043,2.625
-0.037,0.005,1.210,13.794,-18.921,4.028
-0.036,-0.015,1.091,3.174,-2.136,2.869
-0.029,-0.007,1.007,-2.441,11.597,2.014
-0.011,-0.001,0.972,-5.737,15.259,2.197
-0.050,-0.011,1.153,-8.118,16.785,2.197
-0.100,0.135,1.673,-10.193,6.042,4.517
-0.157,-0.045,2.708,-34.180,6.531,2.136
-0.041,-0.060,1.455,-111.938,125.244,-1.526
-0.101,-0.164,-0.447,-65.247,284.119,-20.325
0.129,-0.026,-0.199,-29.480,162.842,-4.944
0.131,-0.068,0.937,-12.024,-19.226,7.629
0.105,0.286,0.940,49.316,-63.232,21.973
-0.199,-0.091,0.501,233.276,-0.671,-0.732
-0.307,-0.187,1.390,-17.212,-12.207,-7.690
-0.002,-0.149,0.984,-56.641,-15.320,-4.700
0.026,-0.059,0.879,-28.625,-2.258,-1.160
-0.023,0.014,0.884,-1.587,10.193,3.479
-0.059,0.010,1.193,5.188,7.507,3.662
-0.048,-0.039,1.097,-6.042,30.762,0.488
-0.008,-0.020,1.101,-25.940,42.969,-0.061
-0.009,-0.053,0.970,-30.151,44.312,1.343
0.046,0.032,0.618,-10.498,26.855,2.686
0.015,-0.002,0.776,2.625,2.136,2.991
0.000,0.006,0.819,7.996,-9.460,2.930
0.001,-0.014,0.796,11.719,-8.789,2.686
-0.003,-0.013,0.922,8.606,-12.085,2.319
-0.010,-0.004,0.989,10.986,-13.794,2.075
-0.037,-0.027,1.086,13.611,-15.503,1.892
-0.039,-0.027,1.112,12.085,-12.329,1.831
-0.038,-0.027,1.133,8.179,-7.935,2.380
-0.038,-0.037,1.079,3.113,-0.977,2.502
-0.027,-0.026,1.052,-1.343,6.775,2.319
-0.028,-0.027,1.055,-5.798,14.099,2.625
-0.065,-0.030,1.396,-11.047,21.240,3.174
-0.101,-0.068,1.790,-9.827,24.841,7.324
-0.064,0.239,2.428,-65.308,29.419,11.047
-0.015,0.008,1.451,-103.760,108.582,1.038
-0.150,-0.181,0.130,-50.171,235.046,-11.353
0.147,-0.017,-0.302,-26.245,176.514,-4.028
0.114,0.097,0.304,-15.381,38.757,6.531
0.119,0.009,0.797,32.776,-59.509,8.057
0.076,-0.007,0.362,18.311,11.597,7.019
0.062,-0.049,-0.093,14.160,30.823,1.709
0.073,-0.031,0.076,2.991,-15.198,8.606
0.119,0.023,0.270,-1.892,-63.171,9.949
0.068,-0.010,0.321,8.362,-89.722,11.292
0.009,0.043,0.409,14.954,-116.760,13.428
0.016,0.187,1.253,18.921,-150.757,12.756
0.230,0.492,2.340,173.645,-196.899,16.296
-0.247,-0.155,0.578,182.739,-0.366,10.498
-0.194,-0.099,1.571,-0.793,-17.700,-7.874
-0.003,-0.036,0.975,-37.476,-30.640,1.038
-0.004,-0.079,0.902,-18.921,-5.188,-1.282
-0.047,-0.035,0.832,4.395,7.690,1.038
-0.060,-0.000,1.176,10.132,-0.610,3.662
-0.079,-0.101,1.269,-8.240,22.949,-0.854
-0.020,0.049,1.138,-31.799,48.889,-0.610
-0.000,-0.035,1.089,-40.100,58.105,0.305
0.021,0.010,0.643,-21.973,46.692,1.892
0.040,0.025,0.872,-1.038,9.949,4.822
0.002,-0.003,0.698,7.874,5.005,2.869
0.017,-0.002,0.694,7.812,-1.099,2.441
0.015,-0.005,0.643,4.822,-5.432,2.197
0.005,-0.000,0.765,3.357,-12.756,2.014
-0.005,0.007,1.139,12.939,-26.184,2.441
-0.039,-0.020,1.134,23.987,-26.978,1.892
-0.059,-0.041,1.262,21.118,-24.658,2.380
-0.046,-0.031,1.198,13.245,-16.418,3.174
-0.042,-0.040,1.076,-0.244,1.160,1.831
-0.027,-0.016,1.003,-6.042,13.306,1.709
-0.016,-0.010,0.941,-8.179,18.921,2.319
-0.006,-0.014,0.861,-8.972,21.973,2.258
0.002,-0.008,0.904,-5.310,15.137,2.319
-0.009,-0.024,0.958,-0.305,6.470,2.441
-0.055,-0.012,1.377,1.526,-1.160,3.784
-0.170,-0.507,2.155,1.343,-11.230,3.357
-0.134,0.436,2.785,-111.450,34.851,2.869
-0.217,-0.127,1.095,-85.144,176.636,-5.859
-0.021,-0.134,-0.415,-45.044,243.591,-12.207
0.174,0.078,-0.057,-36.194,132.324,1.221
0.136,-0.085,0.723,18.677,-57.068,10.803
0.108,0.145,0.700,49.316,-43.823,12.695
0.063,-0.068,0.188,14.587,36.743,1.709
0.096,-0.003,0.046,12.695,6.592,3.723
0.156,0.075,0.205,-7.507,-25.879,5.554
0.091,0.038,0.222,-0.061,-57.800,5.798
0.027,-0.001,0.118,16.541,-94.666,5.798
-0.038,0.061,0.489,15.442,-133.728,6.348
-0.174,0.054,2.532,77.881,-206.299,7.141
-0.121,-0.043,0.555,239.075,-82.275,13.489
-0.305,-0.356,0.647,60.547,20.447,-8.118
-0.056,-0.050,1.136,-49.133,-46.204,0.366
0.021,-0.082,0.999,-30.945,-12.817,-1.160
-0.029,-0.035,0.794,-6.409,2.319,1.282
-0.058,-0.003,1.181,6.470,7.507,2.808
-0.082,-0.029,1.188,0.000,17.456,2.686
-0.013,-0.002,1.150,-25.574,44.373,-1.831
-0.011,-0.016,1.092,-38.757,56.335,0.793
0.037,0.015,0.756,-27.527,49.316,0.671
0.040,0.007,0.737,-2.625,15.686,3.784
-0.001,-0.004,0.758,6.958,-0.793,3.296
0.010,0.002,0.728,10.315,-5.981,2.869
0.010,-0.007,0.725,7.507,-7.812,2.441
0.003,-0.008,0.846,5.310,-12.756,2.136
-0.013,0.002,1.075,13.367,-22.034,2.869
-0.037,-0.025,1.132,19.348,-20.691,1.587
-0.047,-0.026,1.220,15.991,-18.311,2.014
-0.035,-0.038,1.125,9.277,-9.827,2.197
-0.058,-0.056,1.282,0.427,-0.244,2.441
-0.065,0.055,1.441,-2.869,6.592,4.761
-0.114,-0.312,2.166,-36.255,14.465,4.822
-0.199,0.251,2.898,-133.423,50.781,9.033
-0.086,-0.039,1.295,-60.120,161.133,-9.766
-0.203,-0.202,-0.621,-51.697,308.044,-15.808
0.102,-0.065,-0.399,-25.269,176.514,-5.127
0.223,0.189,0.726,-28.687,19.104,4.211
0.165,0.225,1.070,30.579,-58.167,11.841
0.096,-0.069,0.264,13.916,67.383,1.099
0.134,0.056,-0.292,22.827,68.115,1.526
0.114,-0.041,0.004,2.258,-3.174,4.028
0.099,-0.001,0.165,-6.226,-48.645,5.188
0.089,-0.028,-0.120,13.733,-63.660,5.981
0.056,-0.016,-0.187,32.593,-96.436,8.789
-0.081,0.011,0.242,37.109,-171.997,15.015
-0.101,0.071,1.119,17.883,-220.886,14.587
-0.016,0.806,1.985,157.959,-195.557,6.409
-0.311,-0.231,0.236,247.620,9.888,-19.348
-0.311,-0.100,1.535,-24.719,-26.367,-13.367
-0.038,-0.322,1.518,-82.458,-43.701,-3.784
0.052,0.018,0.521,-31.067,4.456,10.925
0.003,0.059,0.600,-5.127,15.259,2.625
-0.186,-0.244,0.724,58.594,26.672,-2.502
-0.086,-0.018,1.472,-9.888,-30.762,1.526
-0.000,-0.030,0.991,-12.451,-18.677,3.540
-0.062,-0.072,0.557,-11.597,28.564,-0.977
-0.047,0.019,1.065,6.653,4.822,3.845
-0.052,-0.022,1.174,5.188,0.183,2.441
-0.038,-0.014,1.152,-14.526,30.273,0.061
-0.015,0.010,1.135,-23.682,40.588,1.343
0.003,-0.012,0.967,-23.987,41.809,0.610
0.026,0.010,0.824,-13.611,27.527,2.869
0.010,0.013,0.779,3.906,3.723,3.906
0.007,-0.002,0.730,7.568,2.197,2.686
0.015,0.002,0.692,4.761,-2.441,2.319
0.010,0.012,0.764,3.418,-7.141,1.831
-0.004,0.006,1.028,9.827,-17.517,1.526
-0.024,-0.005,1.088,18.188,-20.935,2.075
-0.049,-0.030,1.150,18.555,-21.484,2.380
-0.045,-0.021,1.180,18.494,-23.376,4.028
-0.039,-0.012,1.161,6.165,-9.033,3.723
-0.030,-0.022,1.010,-5.859,14.221,0.793
-0.015,0.002,0.930,-10.559,23.010,1.831
-0.009,-0.012,0.867,-9.644,22.766,1.587
0.000,-0.001,0.902,-5.249,14.954,2.014
-0.009,-0.007,0.922,0.000,6.042,2.441
-0.071,-0.026,1.262,1.892,-1.526,3.052
-0.070,-0.202,2.097,2.502,-21.362,5.920
-0.130,0.364,2.938,-70.190,16.541,5.493
-0.137,-0.119,1.175,-95.337,164.246,-5.371
-0.013,-0.125,-0.555,-50.903,259.949,-10.925
0.204,0.047,-0.173,-26.794,138.733,0.366
0.146,0.076,0.721,5.432,-34.058,9.705
0.132,0.087,0.646,49.500,-50.964,6.897
0.084,-0.006,0.190,16.907,28.076,3.723
0.096,-0.002,0.091,15.686,1.343,1.282
0.112,0.035,0.252,-3.967,-30.518,3.235
0.068,0.017,0.264,-3.235,-54.932,4.089
0.032,0.013,0.246,8.179,-86.060,5.432
-0.033,0.044,0.543,11.414,-122.192,6.348
-0.103,0.459,2.430,67.261,-189.026,6.348
-0.184,-0.120,1.745,270.691,-99.670,5.188
-0.231,-0.280,0.553,48.035,28.259,-4.517
-0.057,-0.025,1.200,-31.250,-33.569,2.869
-0.006,-0.084,0.874,-20.630,-9.705,0.000
-0.038,-0.039,0.805,-2.014,5.249,0.854
-0.056,0.004,1.152,8.484,3.418,3.357
-0.083,-0.036,1.206,3.113,12.146,2.258
-0.021,-0.004,1.194,-24.536,39.978,-2.563
-0.012,-0.006,1.132,-40.161,57.495,0.366
0.026,-0.014,0.617,-33.936,59.875,-0.427
0.036,0.018,0.831,-4.089,18.372,5.005
0.005,0.005,0.705,7.263,0.610,3.418
0.010,0.002,0.755,9.583,-5.066,2.869
0.012,-0.004,0.720,7.019,-6.592,2.502
0.004,0.004,0.765,4.517,-10.803,2.075
-0.005,0.010,1.088,10.864,-21.179,1.892
-0.031,-0.014,1.107,20.203,-22.339,1.953
-0.048,-0.025,1.235,18.005,-20.325,2.075
-0.042,-0.025,1.156,12.939,-14.771,2.808
-0.037,-0.027,1.105,3.418,-3.723,2.625
-0.027,-0.016,1.023,-3.357,8.972,2.136
-0.014,-0.006,0.953,-6.714,17.090,1.892
-0.014,-0.019,0.896,-8.606,20.630,1.953
-0.049,-0.027,1.234,-7.690,15.991,2.808
-0.068,-0.077,1.666,-0.366,2.991,5.981
-0.079,0.152,2.499,-46.143,5.127,11.963
-0.019,0.022,1.594,-104.919,99.915,2.319
-0.156,-0.173,0.325,-51.453,229.309,-12.634
0.127,-0.010,-0.308,-26.245,191.284,-8.057
0.132,0.102,0.165,-15.015,57.190,5.798
0.135,-0.030,0.589,31.555,-58.472,7.629
0.092,0.038,0.331,29.114,-12.939,7.568
0.109,0.011,0.050,20.081,4.883,4.089
0.141,0.054,0.194,4.028,-27.710,5.005
0.059,-0.027,0.291,-4.456,-56.702,3.906
0.033,-0.000,0.351,0.061,-79.834,4.211
-0.016,0.046,0.519,7.751,-112.671,5.920
-0.104,-0.116,2.020,36.987,-165.833,6.165
-0.156,0.141,1.646,196.045,-171.814,18.188
-0.219,-0.283,0.981,62.317,7.568,-7.690
-0.060,-0.063,1.137,-25.696,-10.986,-3.296
0.005,-0.019,0.874,-16.235,-12.085,2.991
-0.045,-0.034,0.798,-3.235,2.258,0.427
-0.048,-0.007,1.111,11.353,0.610,2.258
-0.077,0.018,1.202,13.855,-1.648,3.723
-0.065,-0.104,1.300,-16.968,26.917,-2.747
-0.023,0.035,1.202,-36.438,49.805,0.305
0.017,-0.041,0.867,-37.537,65.613,-0.793
0.021,0.008,0.594,-15.198,44.250,3.906
0.023,0.026,0.842,4.822,-2.197,4.944
0.003,-0.001,0.712,8.179,1.343,2.197
0.016,0.000,0.691,7.202,-4.883,2.502
0.010,0.003,0.704,4.333,-8.606,2.136
0.000,-0.002,0.998,6.592,-18.250,1.709
-0.022,-0.006,1.109,19.409,-26.917,2.075
-0.050,-0.028,1.168,21.973,-24.292,2.075
-0.046,-0.020,1.218,20.508,-26.611,3.540
-0.042,-0.019,1.169,8.301,-11.658,3.601
-0.036,-0.032,1.031,-4.456,11.292,0.610
-0.020,-0.002,0.964,-8.728,19.409,2.319
-0.006,-0.004,0.906,-9.644,21.790,2.075
-0.025,-0.008,0.997,-8.972,20.569,1.770
-0.078,-0.008,1.393,-2.563,6.592,3.784
-0.116,-0.219,2.268,-8.606,-11.475,9.949
-0.059,0.301,2.465,-104.065,53.528,8.362
-0.263,-0.109,0.820,-83.679,222.839,-9.521
0.054,-0.043,-0.272,-37.537,212.585,-7.263
0.130,0.105,0.115,-26.550,94.849,4.028
0.109,-0.036,0.761,32.593,-60.852,10.071
0.079,0.090,0.609,37.415,-18.799,9.277
0.065,-0.054,0.104,12.817,31.616,4.028
0.146,0.029,0.132,5.981,-3.845,7.019
0.179,0.071,0.250,-5.127,-34.302,7.568
0.059,0.026,0.249,5.554,-63.904,7.019
0.019,0.023,0.219,16.846,-99.426,8.240
-0.005,0.111,0.735,13.916,-138.245,8.850
-0.100,-0.095,1.548,108.337,-200.745,8.118
-0.183,-0.140,1.177,241.638,-58.044,8.728
-0.255,-0.325,0.640,31.799,24.963,-9.705
-0.036,-0.011,1.191,-38.330,-35.889,3.235
0.054,0.242,2.162,-137.817,71.411,4.639
-0.169,-0.073,0.393,-71.899,248.779,-13.916
0.056,-0.138,-0.640,-29.785,209.473,-8.545
0.192,0.223,0.482,-16.907,33.447,7.690
0.134,0.049,0.886,48.096,-79.773,8.606
0.081,0.025,0.437,17.944,24.109,2.075
0.085,-0.012,-0.047,9.033,46.814,-0.549
0.099,-0.009,0.112,-0.793,-5.920,2.747
0.104,0.042,0.231,-2.625,-47.852,4.578
0.044,-0.018,0.239,12.634,-81.970,5.798
-0.005,0.034,0.316,22.034,-119.263,6.409
-0.065,0.104,0.822,22.400,-148.437,7.385
-0.103,0.206,1.870,162.354,-193.726,5.615
-0.314,-0.285,0.230,232.300,3.784,-15.198
-0.249,-0.153,1.522,-1.953,-29.663,-11.658
-0.026,-0.068,0.854,-47.241,-28.381,-0.549
0.024,-0.037,1.196,-34.302,-19.043,1.160
-0.054,-0.056,0.692,-0.916,11.597,2.869
-0.075,-0.043,1.200,7.019,2.930,4.089
-0.070,-0.030,1.268,-6.470,20.142,3.723
-0.014,0.023,1.136,-32.288,56.519,0.305
0.007,-0.066,0.864,-42.053,67.078,0.000
0.050,0.019,0.843,-17.395,37.476,3.845
0.048,0.015,0.739,1.160,12.207,4.028
0.014,-0.005,0.763,7.324,0.854,3.052
0.027,-0.008,0.709,8.484,-2.502,2.563
0.024,-0.011,0.659,5.188,-5.737,2.014
0.017,0.000,0.732,2.808,-12.268,1.587
0.001,0.006,1.133,10.864,-25.391,1.465
-0.035,-0.022,1.137,24.536,-29.297,2.014
-0.060,-0.047,1.253,22.644,-25.452,2.075
-0.047,-0.016,1.225,14.771,-19.592,3.418
-0.047,-0.043,1.065,-0.977,2.625,1.282
-0.033,-0.010,1.007,-7.019,14.648,1.709
-0.020,-0.009,0.951,-7.690,18.311,2.686
-0.011,-0.014,0.898,-9.521,22.339,2.441
-0.022,-0.012,1.156,-8.301,17.639,3.174
-0.043,-0.055,1.475,-3.540,16.174,5.005
-0.084,-0.091,1.744,1.465,11.292,13.916
-0.046,0.331,2.134,-48.096,31.433,20.752
-0.053,-0.014,1.255,-59.326,108.643,0.427
-0.010,-0.143,0.282,-22.644,162.170,-5.859
0.127,0.039,-0.207,-14.221,145.569,-2.808
0.132,0.039,0.080,-2.441,44.067,4.944
0.135,0.041,0.332,10.315,-25.085,6.104
0.098,0.006,0.309,20.264,-32.776,3.723
0.075,0.001,0.159,24.780,-41.321,3.784
0.046,-0.014,0.383,11.292,-62.378,3.723
0.011,-0.000,0.729,2.136,-92.285,3.540
-0.008,0.034,0.631,-0.671,-87.830,2.747
-0.069,0.079,1.727,10.193,-101.990,1.831
-0.139,0.495,1.902,109.375,-154.419,13.367
-0.192,-0.219,1.023,65.979,0.671,4.639
-0.095,-0.057,1.243,-6.714,-11.414,-2.625
-0.004,0.004,1.047,-9.583,-18.005,5.249
-0.062,-0.089,0.637,-11.719,21.790,-0.549
-0.049,0.012,1.042,3.174,11.841,2.991
-0.051,-0.040,1.109,1.465,6.653,2.991
-0.029,0.007,1.121,-13.306,27.893,1.526
-0.005,0.012,1.096,-23.010,39.917,1.221
0.005,-0.015,0.945,-21.973,39.856,0.549
0.023,0.011,0.881,-10.620,22.644,2.502
0.016,0.017,0.792,3.784,3.784,3.845
0.009,-0.003,0.746,7.324,1.953,2.869
0.017,0.001,0.721,4.700,-1.892,2.380
0.012,0.010,0.752,3.540,-6.042,2.014
0.000,0.005,1.026,8.484,-15.503,1.770
-0.021,-0.006,1.068,16.907,-19.897,1.831
-0.046,-0.023,1.174,17.334,-19.653,2.197
-0.046,-0.028,1.148,16.296,-19.226,3.235
-0.040,-0.012,1.155,8.179,-10.376,3.784
-0.031,-0.013,1.034,-3.052,8.362,2.014
-0.021,-0.005,0.950,-9.094,20.813,1.526
-0.014,-0.016,0.875,-9.644,23.010,1.831
-0.049,-0.027,1.193,-7.446,15.015,2.319
-0.090,0.106,1.660,-0.488,-3.418,5.676
-0.123,0.059,2.601,-35.706,-1.465,4.028
-0.003,0.015,1.498,-104.919,114.624,-0.488
-0.089,-0.114,0.054,-59.753,244.568,-10.193
0.097,-0.115,-0.241,-24.170,179.810,-5.066
0.151,0.171,0.315,-11.353,35.034,6.531
0.124,-0.001,0.741,41.992,-64.270,5.432
0.098,0.027,0.367,18.372,10.803,5.676
0.092,-0.007,0.031,11.841,22.644,0.427
0.088,-0.000,0.183,-0.916,-15.930,3.296
0.071,0.020,0.298,-2.258,-50.903,4.150
0.057,-0.008,0.311,9.216,-80.627,5.676
-0.002,0.063,0.439,15.503,-114.563,7.141
-0.084,0.122,1.518,24.292,-150.391,6.653
0.032,-0.017,1.052,181.458,-193.054,4.517
-0.285,-0.237,0.653,153.198,-12.268,-1.587
-0.002,-0.035,1.023,-34.241,-26.733,2.625
-0.014,-0.051,0.948,-19.165,-6.775,-0.305
-0.051,-0.017,0.905,5.005,11.658,1.831
-0.073,-0.034,1.204,7.874,1.160,3.784
-0.064,-0.051,1.249,-12.085,26.733,1.160
-0.018,0.038,1.141,-33.813,55.237,0.488
0.008,-0.063,0.878,-40.771,64.331,-0.427
0.031,0.020,0.828,-15.869,37.170,3.296
0.039,0.022,0.765,2.747,7.507,4.150
0.004,-0.004,0.752,8.484,2.075,3.235
0.019,-0.002,0.719,7.019,-2.075,2.625
0.018,-0.005,0.652,4.639,-5.310,2.136
0.010,0.005,0.769,3.052,-12.390,1.709
-0.003,0.008,1.148,12.695,-25.879,1.709
-0.036,-0.018,1.142,24.780,-28.198,2.319
-0.058,-0.049,1.230,23.071,-26.428,2.441
-0.045,-0.012,1.226,15.869,-21.301,4.028
-0.045,-0.042,1.074,-1.099,2.869,1.404
-0.030,-0.009,0.980,-9.033,18.738,1.587
-0.017,-0.006,0.944,-8.606,20.142,2.686
-0.008,-0.012,0.885,-8.972,21.179,1.953
0.001,-0.004,0.905,-5.737,15.930,2.014
0.001,-0.005,0.894,-0.061,6.897,2.319
-0.000,-0.012,0.894,3.540,-0.977,2.319
-0.037,-0.020,1.132,4.272,-4.822,2.686
-0.091,0.012,1.434,8.057,-8.667,4.639
-0.116,-0.190,2.231,-14.404,-17.273,12.207
-0.149,0.203,2.651,-114.197,44.189,13.306
-0.225,0.153,2.795,-109.558,77.332,9.705
-0.081,-0.051,0.775,-48.279,236.023,-16.174
-0.021,-0.030,-0.868,-39.490,297.058,-15.198
0.186,0.025,-0.020,-25.879,103.577,-0.366
0.152,0.029,0.781,-5.920,-24.719,6.470
0.102,0.049,0.700,34.363,-17.395,6.470
0.048,-0.111,0.006,21.118,62.317,0.610
0.078,-0.077,-0.292,26.184,27.649,6.531
0.085,-0.036,-0.059,-1.038,-26.367,8.789
0.108,0.020,-0.024,-0.122,-65.674,12.146
0.133,-0.014,0.034,17.334,-102.356,13.733
-0.052,0.026,0.362,19.958,-147.461,16.724
-0.060,0.073,1.047,14.526,-192.322,18.433
0.154,0.152,2.913,131.592,-218.628,19.287
-0.229,-0.127,0.197,246.338,-4.333,-3.052
-0.350,-0.224,0.555,20.325,-5.554,-20.447
-0.034,-0.314,1.560,-75.317,-83.130,-1.831
0.050,0.042,0.683,-28.748,-4.517,10.132
-0.007,0.017,0.646,-6.592,12.878,4.333
-0.051,0.005,1.168,17.029,-5.127,2.808
-0.087,-0.016,1.235,24.170,0.427,1.099
-0.070,-0.101,1.289,-11.292,30.090,-3.906
-0.030,0.017,1.258,-41.687,51.697,2.991
0.052,0.006,0.700,-42.664,67.932,0.488
0.008,-0.020,0.643,-9.338,36.011,3.235
0.035,0.030,0.922,3.113,-0.305,5.554
0.007,-0.001,0.756,7.324,6.958,2.258
0.019,-0.007,0.725,6.165,1.892,2.380
0.021,-0.008,0.660,2.869,-2.930,2.075
0.014,0.006,0.685,1.770,-10.986,1.526
-0.001,-0.008,1.080,8.240,-24.841,1.282
-0.025,-0.007,1.142,26.489,-34.790,2.258
-0.063,-0.049,1.255,27.344,-29.358,2.014
-0.054,-0.025,1.276,18.738,-24.719,3.357
-0.045,-0.044,1.110,1.221,-0.488,1.831
-0.034,-0.031,0.988,-9.766,18.005,0.977
-0.017,-0.007,0.955,-10.620,21.240,2.686
-0.020,-0.010,0.931,-10.620,23.071,2.258
-0.050,-0.039,1.245,-9.460,20.935,3.235
-0.043,-0.050,1.522,-3.967,20.142,7.202
-0.047,0.003,1.697,-1.953,18.494,15.015
-0.036,0.069,1.701,-11.108,45.349,13.245
-0.013,0.016,1.190,-4.822,102.783,-1.465
0.047,-0.075,0.097,5.127,131.226,-3.967
0.093,-0.031,-0.135,9.033,94.543,-1.038
0.096,0.014,0.126,1.953,14.709,5.310
0.096,0.016,0.375,-0.610,-14.221,4.578
0.080,0.004,0.406,3.784,-20.935,2.930
0.067,0.009,0.408,4.822,-28.503,1.892
0.059,-0.038,0.474,-1.465,-47.241,1.648
0.022,0.009,0.548,-5.127,-64.575,1.648
-0.005,0.003,0.762,-0.793,-86.182,1.892
-0.094,-0.101,1.855,17.944,-105.713,0.854
-0.089,0.416,2.656,89.294,-140.442,12.024
-0.215,-0.297,0.309,58.350,52.124,-15.442
-0.103,-0.010,2.091,-11.963,-51.025,-2.563
0.002,0.021,1.049,-11.108,-20.447,7.751
-0.046,-0.081,0.574,-9.521,24.292,0.244
-0.041,-0.015,1.117,-0.854,6.897,4.395
-0.043,-0.007,1.063,-6.592,18.005,2.747
-0.033,-0.012,1.066,-17.456,34.485,0.061
0.002,-0.001,1.065,-18.433,33.325,2.380
0.001,-0.015,0.935,-14.343,26.611,2.075
0.014,0.005,0.942,-5.798,13.733,2.991
0.009,0.003,0.782,3.479,8.179,3.357
0.007,-0.008,0.758,4.822,5.310,2.625
0.012,-0.005,0.730,2.991,1.343,2.136
0.013,-0.002,0.721,2.563,-4.211,1.892
0.005,0.000,0.981,5.981,-14.099,1.831
-0.017,-0.011,1.062,17.090,-23.193,2.014
-0.041,-0.032,1.186,20.264,-22.705,1.831
-0.046,-0.034,1.178,15.076,-17.334,2.258
-0.041,-0.037,1.117,5.005,-4.700,2.319
-0.030,-0.019,1.049,-2.869,6.470,2.686
-0.018,-0.013,0.969,-6.348,15.503,2.441
-0.008,-0.010,0.919,-7.446,18.982,2.136
0.000,-0.008,0.902,-6.042,16.296,2.197
0.004,-0.004,0.890,-1.465,9.216,2.258
-0.000,-0.010,0.881,2.686,1.465,2.258
-0.005,-0.008,0.916,4.822,-3.479,2.258
-0.011,-0.017,0.951,6.104,-5.066,2.258
-0.056,-0.033,1.276,5.127,-4.761,2.747
-0.079,-0.108,1.531,6.897,-7.019,5.371
-0.098,-0.142,2.170,-18.921,-0.671,16.418
-0.087,0.239,2.293,-94.604,52.429,10.254
-0.069,-0.090,1.159,-41.870,146.545,-5.432
-0.015,-0.047,0.192,-19.836,182.373,-3.723
0.111,-0.013,-0.097,-2.258,134.827,-2.563
0.132,0.003,-0.045,11.047,46.997,3.906
0.121,0.015,0.090,12.634,4.089,4.578
0.113,0.022,0.230,18.372,-27.405,5.371
0.120,0.023,0.232,19.470,-39.734,3.967
0.063,-0.002,0.233,7.446,-44.434,1.953
0.022,-0.007,0.423,-1.709,-70.007,2.808
0.003,0.011,0.577,-8.118,-91.614,2.014
-0.009,0.043,0.734,-6.836,-99.365,3.662
-0.173,-0.055,2.249,42.419,-143.738,3.479
-0.179,-0.036,1.176,181.824,-126.770,14.160
-0.151,-0.163,1.225,32.532,5.371,-3.967
-0.087,-0.073,1.164,-26.917,-19.897,1.953
0.004,-0.040,0.861,-20.386,-0.793,1.221
-0.040,-0.024,0.612,0.732,11.169,1.404
-0.054,-0.004,1.103,9.216,1.038,2.441
-0.077,-0.071,1.228,2.502,8.545,0.000
-0.046,-0.001,1.234,-20.447,34.058,-1.648
-0.009,-0.003,1.165,-34.302,51.392,1.709
0.019,-0.003,0.730,-31.311,52.429,1.343
0.016,0.021,0.932,-7.202,22.278,4.211
0.023,0.018,0.746,5.859,6.348,3.784
0.010,-0.005,0.761,6.470,6.042,2.747
0.022,-0.001,0.660,4.150,2.869,2.197
0.020,0.000,0.659,1.770,-3.296,1.831
0.011,0.006,0.797,2.441,-13.367,1.648
-0.007,0.009,1.174,14.282,-28.137,2.014
-0.042,-0.019,1.174,28.503,-33.020,2.563
-0.055,-0.036,1.238,26.001,-31.311,2.991
-0.048,-0.018,1.226,13.306,-19.287,3.723
-0.045,-0.044,1.067,-2.991,7.568,0.671
-0.027,-0.003,0.974,-10.620,21.851,2.014
-0.064,-0.005,1.478,-49.927,115.479,-2.625
-0.009,0.055,0.639,-6.531,158.386,-4.028
0.041,-0.050,-0.075,-5.249,162.598,-5.249
0.123,0.019,-0.157,5.249,81.726,1.526
0.129,0.020,-0.022,7.874,17.517,4.578
0.104,0.009,0.201,8.179,-15.320,5.249
0.142,0.047,0.260,16.541,-39.368,5.249
0.075,-0.008,0.204,9.155,-38.879,2.502
0.019,0.005,0.338,1.099,-61.523,2.686
0.012,-0.038,0.487,-5.554,-87.280,3.052
-0.005,0.060,0.752,-7.874,-105.408,3.906
-0.146,0.133,2.014,12.939,-126.099,3.357
-0.078,0.342,1.859,181.946,-162.964,11.292
-0.210,-0.286,0.665,91.553,11.169,0.610
-0.126,-0.050,1.193,-21.912,-23.010,-0.916
0.005,-0.037,1.010,-26.917,-13.611,1.465
-0.026,-0.042,0.605,-7.080,7.446,0.610
-0.066,-0.014,1.092,9.338,5.127,1.831
-0.072,-0.048,1.188,7.812,1.831,1.892
-0.063,-0.044,1.258,-13.123,28.320,-1.221
-0.023,0.011,1.182,-31.616,48.706,1.709
0.031,-0.006,0.986,-34.485,52.979,1.160
0.019,-0.001,0.847,-17.761,36.743,3.174
0.029,0.012,0.839,2.869,8.728,4.395
0.014,-0.007,0.738,7.080,9.766,2.991
0.023,-0.003,0.669,4.883,4.822,2.380
0.026,-0.000,0.638,2.319,0.183,2.075
0.018,-0.000,0.693,0.854,-8.728,1.648
0.005,0.001,1.004,6.042,-22.034,1.526
-0.023,-0.000,1.154,24.841,-36.011,2.625
-0.062,-0.046,1.247,31.311,-35.645,2.625
-0.055,-0.013,1.285,21.790,-29.663,3.845
-0.048,-0.031,1.149,2.625,-4.700,1.892
-0.039,-0.030,1.004,-8.972,19.958,0.610
-0.024,-0.003,0.937,-11.963,25.513,2.747
-0.011,-0.004,0.908,-10.132,22.400,2.075
-0.000,-0.003,0.905,-8.179,19.653,1.953
0.004,-0.000,0.889,-2.808,10.742,2.258
-0.000,-0.005,0.863,2.258,1.648,2.258
-0.004,-0.003,0.912,5.310,-4.456,2.441
-0.010,-0.009,0.948,6.836,-6.226,2.502
-0.014,-0.012,0.993,6.775,-5.371,2.380
-0.015,-0.012,1.012,5.737,-3.906,2.319
-0.015,-0.013,1.003,4.639,-2.319,2.197
-0.016,-0.012,0.992,3.784,-1.465,2.258
-0.017,-0.013,0.988,3.357,-0.854,2.258
-0.017,-0.014,1.003,2.869,0.427,2.258
-0.015,-0.013,1.000,1.648,2.869,2.258
-0.012,-0.009,0.978,0.793,4.944,2.258
-0.009,-0.007,0.948,0.549,5.005,2.197
-0.007,-0.005,0.929,1.282,3.784,2.258
-0.008,-0.006,0.928,2.563,1.587,2.319
-0.011,-0.006,0.951,3.723,-0.732,2.319
-0.013,-0.007,0.974,4.089,-1.892,2.319
-0.015,-0.007,0.986,4.333,-1.709,2.319
-0.016,-0.007,0.990,3.784,-1.160,2.197
-0.017,-0.007,0.990,3.174,-0.305,2.197
-0.016,-0.009,0.989,2.625,0.793,2.258
-0.014,-0.009,0.983,2.380,1.892,2.319
-0.011,-0.008,0.968,1.892,2.563,2.319
-0.010,-0.007,0.956,2.014,2.319,2.441
-0.010,-0.007,0.953,2.441,1.343,2.319
-0.011,-0.009,0.960,2.930,0.427,2.197
-0.011,-0.010,0.968,3.357,-0.061,2.319
-0.012,-0.011,0.976,3.296,-0.305,2.380
-0.013,-0.010,0.980,3.174,0.061,2.197
-0.014,-0.010,0.980,2.869,0.366,2.197
-0.013,-0.010,0.977,2.686,0.977,2.258
-0.013,-0.009,0.973,2.563,1.404,2.380
-0.013,-0.014,0.980,2.502,1.465,2.380
-0.027,-0.009,1.123,1.648,1.648,2.502
-0.042,-0.013,1.221,0.732,5.737,3.235
-0.045,-0.026,1.367,0.366,9.399,3.906
-0.030,0.040,1.552,-5.127,12.939,4.944
-0.019,-0.002,1.282,-5.920,47.302,2.563
-0.002,-0.013,0.813,-6.958,85.144,-1.404
0.041,0.005,0.582,4.272,66.772,2.869
0.057,-0.004,0.460,5.615,39.246,2.747
0.069,-0.004,0.454,4.028,24.353,2.319
0.060,-0.006,0.521,2.930,8.423,2.563
0.059,-0.001,0.550,1.892,-5.188,2.441
0.053,0.001,0.475,1.953,-16.602,1.892
0.038,-0.001,0.469,0.244,-32.288,2.014
0.016,0.004,0.606,-0.061,-49.622,2.075
-0.011,0.002,0.809,3.296,-65.552,2.075
-0.074,-0.053,1.563,22.278,-86.060,2.197
-0.062,0.108,2.353,72.876,-125.000,9.155
-0.132,-0.121,1.175,34.973,1.221,-2.808
-0.080,-0.078,1.181,-7.751,10.864,1.282
-0.016,-0.008,1.027,-10.437,1.465,3.967
-0.041,-0.047,0.774,-9.216,21.362,1.770
-0.031,-0.010,1.053,-6.409,16.541,3.113
-0.019,0.004,0.978,-11.047,24.414,2.075
-0.005,-0.005,0.967,-13.733,26.428,1.892
0.003,-0.005,0.977,-9.949,20.874,2.319
0.003,-0.009,0.901,-2.747,10.559,2.625
0.010,0.006,0.896,1.831,2.075,2.930
0.000,-0.005,0.864,4.517,0.061,2.747
0.003,-0.004,0.848,4.700,-0.854,2.502
0.001,-0.000,0.891,4.456,-2.991,2.075
-0.005,-0.006,0.940,6.287,-5.981,1.831
-0.013,-0.008,1.010,9.033,-9.583,1.892
-0.024,-0.013,1.037,10.437,-10.742,2.136
-0.035,-0.020,1.093,9.460,-9.583,2.380
-0.032,-0.019,1.083,5.737,-4.150,2.380
-0.028,-0.013,1.044,0.122,3.906,2.441
-0.019,-0.007,0.975,-3.174,10.559,2.441
-0.012,-0.005,0.945,-3.784,12.451,2.258
-0.006,-0.005,0.915,-2.625,10.803,2.197
-0.002,-0.004,0.907,0.183,6.226,2.319
-0.004,-0.005,0.902,2.686,1.526,2.319
-0.007,-0.005,0.922,4.211,-2.441,2.441
-0.011,-0.010,0.959,5.493,-4.211,2.258
-0.016,-0.012,0.995,5.676,-4.333,2.197
-0.017,-0.013,1.009,5.188,-3.357,2.502
-0.018,-0.014,1.010,4.211,-1.892,2.502
-0.017,-0.014,1.000,2.869,-0.061,2.380
-0.015,-0.012,0.989,1.892,1.709,2.258
-0.014,-0.010,0.972,1.465,3.174,2.197
-0.097,0.177,2.288,-102.905,72.693,6.226
-0.066,0.076,0.995,-36.621,184.937,-7.629
0.018,-0.076,-0.057,-19.958,200.195,-7.385
0.102,0.007,-0.214,-5.005,133.728,-2.197
0.143,0.049,0.162,-4.578,44.128,4.761
0.153,0.041,0.394,7.507,-7.324,5.554
0.147,0.010,0.193,19.165,-3.784,2.991
0.108,-0.060,-0.226,31.311,-9.399,2.808
0.089,0.035,-0.157,20.081,-38.574,6.226
0.054,0.058,0.262,15.869,-113.037,9.949
-0.027,-0.038,0.816,7.019,-136.719,5.554
-0.031,0.060,0.762,-4.272,-113.281,3.662
-0.123,0.221,2.165,9.033,-128.601,3.845
-0.168,0.097,2.303,210.449,-144.287,0.244
-0.224,-0.296,0.501,108.459,30.701,-10.681
-0.126,-0.042,1.440,-29.846,-39.673,-1.343
0.023,-0.035,1.037,-42.725,-34.607,1.831
-0.023,-0.022,0.688,-15.137,9.155,-2.319
-0.052,0.005,0.893,10.620,8.667,1.892
-0.061,-0.008,1.219,19.043,-8.240,2.319
-0.089,-0.100,1.330,-4.272,21.973,-1.526
-0.028,0.068,1.237,-29.907,46.875,2.625
0.025,0.025,1.035,-42.542,64.270,0.793
0.003,-0.063,0.594,-21.790,50.354,1.526
0.036,0.057,0.950,2.441,5.371,6.165
0.007,-0.003,0.726,7.324,7.996,2.563
0.020,-0.005,0.716,6.104,3.967,2.319
0.024,-0.000,0.625,3.357,0.305,2.014
0.017,0.000,0.655,0.610,-8.057,1.526
0.001,-0.007,0.947,4.700,-20.447,1.465
-0.016,0.007,1.175,23.987,-37.476,3.113
-0.062,-0.045,1.285,32.837,-37.476,2.441
-0.052,-0.012,1.300,21.790,-27.527,3.601
-0.048,-0.040,1.114,2.930,-2.930,1.404
-0.037,-0.028,1.009,-8.118,15.076,0.916
-0.021,-0.003,0.973,-10.071,20.508,2.258
-0.011,-0.005,0.903,-10.986,24.170,1.892
-0.000,-0.004,0.905,-9.155,21.973,1.709
0.004,-0.001,0.897,-2.930,11.169,2.563
-0.001,-0.004,0.871,2.197,2.258,2.502
-0.005,-0.002,0.902,5.005,-4.150,2.625
-0.012,-0.008,0.941,7.019,-6.287,2.563
-0.016,-0.011,0.992,7.202,-5.676,2.441
-0.019,-0.011,1.022,5.981,-4.211,2.197
-0.018,-0.011,1.008,4.700,-2.441,2.136
-0.016,-0.009,0.988,3.357,-1.282,2.380
-0.016,-0.010,0.982,2.930,-0.854,2.380
-0.018,-0.011,1.002,3.174,0.183,2.502
-0.017,-0.011,1.005,2.136,2.563,2.319
-0.012,-0.008,0.985,0.916,4.822,2.197
-0.008,-0.005,0.950,0.549,5.432,2.319
-0.007,-0.005,0.927,1.221,3.906,2.319
-0.007,-0.006,0.925,2.441,1.404,2.380
-0.010,-0.007,0.951,3.662,-0.732,2.319
-0.013,-0.007,0.978,4.150,-1.709,2.197
-0.015,-0.008,0.987,4.150,-1.648,2.197
-0.015,-0.008,0.986,3.601,-1.099,2.319
-0.016,-0.008,0.988,3.418,-0.366,2.380
-0.016,-0.009,0.990,2.991,0.610,2.197
-0.015,-0.009,0.986,2.258,1.770,2.380
-0.013,-0.009,0.973,1.892,2.686,2.380
-0.011,-0.007,0.957,2.075,2.563,2.258
-0.011,-0.007,0.951,2.563,1.709,2.319
-0.011,-0.008,0.958,3.052,0.610,2.319
-0.013,-0.009,0.970,3.357,0.183,2.319
-0.013,-0.009,0.979,3.601,-0.061,2.319
-0.015,-0.010,0.982,3.296,0.061,2.258
-0.014,-0.009,0.979,3.052,0.488,2.380
-0.014,-0.008,0.975,2.686,0.916,2.380
-0.014,-0.009,0.974,2.563,1.221,2.319
-0.012,-0.008,0.973,2.686,1.709,2.258
-0.012,-0.009,0.967,2.686,1.404,2.319
-0.012,-0.008,0.963,2.808,1.099,2.319
-0.012,-0.008,0.966,3.174,0.549,2.319
-0.014,-0.008,0.973,3.296,0.305,2.258
-0.014,-0.008,0.978,3.174,0.427,2.319
-0.015,-0.008,0.980,3.174,0.793,2.380
-0.014,-0.008,0.975,2.930,0.916,2.380
-0.013,-0.008,0.969,2.686,1.404,2.258
-0.012,-0.008,0.968,2.808,1.160,2.197
-0.013,-0.008,0.970,2.747,0.977,2.197
-0.013,-0.008,0.972,2.869,0.854,2.136
-0.013,-0.007,0.973,2.808,0.671,2.258
-0.012,-0.009,0.971,2.747,0.549,2.258
-0.012,-0.009,0.972,2.686,0.610,2.197
-0.013,-0.009,0.974,2.747,0.732,2.380
-0.014,-0.009,0.975,2.930,0.916,2.258
-0.013,-0.008,0.972,2.808,0.977,2.319
-0.012,-0.009,0.969,2.747,0.793,2.258
-0.013,-0.009,0.969,2.808,0.977,2.319
-0.013,-0.009,0.971,2.930,0.793,2.258
-0.013,-0.009,0.973,3.052,0.732,2.258
-0.014,-0.009,0.974,2.869,0.854,2.197
-0.014,-0.008,0.973,2.869,0.854,2.319
-0.013,-0.008,0.972,2.686,0.854,2.380
-0.014,-0.008,0.972,2.747,0.732,2.197
-0.014,-0.008,0.972,2.869,0.732,2.258
-0.014,-0.008,0.972,2.808,0.793,2.197
-0.014,-0.008,0.973,2.869,0.854,2.258
-0.014,-0.007,0.972,2.808,0.610,2.319
-0.012,-0.007,0.971,3.113,0.793,2.258
-0.013,-0.008,0.973,2.869,0.793,2.319
-0.013,-0.008,0.974,2.747,0.732,2.319
-0.012,-0.009,0.974,2.747,0.793,2.258
-0.013,-0.008,0.972,2.563,0.671,2.197
-0.013,-0.008,0.970,2.747,0.854,2.197
-0.013,-0.008,0.972,2.930,0.977,2.441
-0.013,-0.009,0.973,2.930,0.854,2.380
-0.013,-0.009,0.972,2.930,0.732,2.197
-0.013,-0.010,0.972,2.930,0.732,2.136
-0.013,-0.008,0.972,2.686,0.732,2.258
-0.014,-0.008,0.972,2.686,0.732,2.258
-0.013,-0.008,0.972,2.991,0.793,2.319
-0.014,-0.009,0.973,2.869,0.732,2.136
-0.014,-0.009,0.972,2.869,0.732,2.197
-0.013,-0.009,0.973,2.808,0.671,2.258
-0.014,-0.009,0.973,2.930,0.793,2.197
-0.014,-0.009,0.973,2.869,0.793,2.319
-0.013,-0.009,0.974,2.747,0.854,2.380
-0.270,0.337,2.769,-129.761,39.429,9.888
-0.240,-0.131,0.844,-71.167,235.962,-16.235
-0.036,-0.264,-1.063,-42.786,263.123,-26.733
0.269,0.033,0.288,-31.860,65.430,3.418
0.236,0.410,1.044,46.692,-83.923,30.579
0.026,-0.028,0.742,35.034,12.390,13.367
0.104,0.013,0.043,9.216,65.918,-4.822
0.107,-0.020,0.034,2.380,20.508,1.709
0.132,0.029,0.160,-7.202,-20.020,3.662
0.095,0.005,0.029,17.456,-61.096,5.371
0.000,-0.073,-0.087,40.222,-105.042,7.568
-0.086,0.001,0.297,25.085,-142.883,9.949
-0.108,0.199,1.775,24.048,-192.810,9.705
-0.089,0.042,0.678,236.816,-142.761,-0.854
-0.467,-0.367,0.483,148.010,37.720,-19.958
-0.168,-0.202,1.184,-54.016,-52.673,-8.911
0.013,-0.091,1.338,-60.364,-25.330,0.671
0.013,-0.045,0.625,-21.484,4.944,11.597
-0.033,0.065,1.083,-2.014,10.742,2.869
-0.056,0.050,1.147,5.249,13.794,1.953
-0.045,-0.178,0.972,-9.338,39.063,-3.235
-0.009,-0.004,1.242,-28.381,44.189,2.380
0.028,-0.050,0.851,-29.785,44.617,3.784
0.052,0.023,0.588,-6.165,22.461,3.418
0.031,0.020,0.831,5.432,-2.747,3.540
0.001,-0.006,0.812,10.803,-12.268,3.784
0.004,-0.017,0.829,11.902,-8.972,2.319
0.002,-0.005,0.918,6.287,-10.071,1.953
-0.006,-0.003,1.010,9.460,-13.489,1.160
-0.033,-0.028,1.062,13.611,-14.282,0.671
-0.035,-0.020,1.101,11.780,-12.817,1.465
-0.041,-0.026,1.116,8.850,-8.362,2.197
-0.040,-0.034,1.081,4.456,-2.991,2.686
-0.035,-0.023,1.062,-0.427,5.737,2.930
-0.022,-0.020,0.983,-4.700,13.428,2.686
-0.026,-0.020,1.065,-7.202,17.761,2.686
-0.044,-0.036,1.292,-7.690,20.813,3.784
-0.046,-0.060,1.528,-5.127,24.231,7.263
-0.049,0.010,1.719,-4.883,26.001,13.550
-0.033,0.103,1.659,-18.738,53.406,9.827
-0.004,-0.033,1.025,-28.625,102.112,-1.160
0.049,-0.006,0.065,5.493,121.155,-3.235
0.079,-0.033,-0.105,6.592,82.458,-0.488
0.087,-0.000,0.153,-3.601,16.785,4.028
0.103,0.032,0.363,-3.845,-12.756,3.906
0.077,0.013,0.428,2.869,-26.001,2.930
0.057,-0.011,0.398,4.578,-35.278,1.770
0.047,-0.008,0.466,-0.183,-53.284,1.831
0.009,0.007,0.590,-3.113,-74.768,2.197
-0.031,0.016,0.883,2.930,-93.872,1.831
-0.139,-0.256,2.144,41.077,-123.840,4.395
-0.177,-0.013,1.272,105.225,-96.924,10.925
-0.140,-0.228,1.158,27.100,22.339,-13.123
-0.053,-0.036,1.190,-20.630,-29.175,5.249
-0.006,-0.043,0.795,-15.198,8.423,1.404
-0.047,-0.040,0.878,-2.014,12.756,2.319
-0.049,-0.015,1.078,-2.625,12.085,2.991
-0.040,-0.011,1.027,-11.475,26.489,1.709
-0.012,0.001,1.086,-18.494,32.898,1.892
0.017,-0.003,0.980,-17.151,32.104,2.014
0.008,-0.014,0.950,-9.766,19.226,2.380
0.027,0.013,0.900,-1.038,7.385,3.540
0.012,-0.004,0.785,4.883,5.249,3.235
0.019,-0.004,0.749,4.150,2.747,2.563
0.020,-0.002,0.720,2.625,-0.305,2.075
0.013,0.006,0.832,3.540,-7.385,1.892
-0.003,0.001,1.078,11.597,-18.738,1.648
-0.027,-0.012,1.078,18.433,-20.264,1.953
-0.046,-0.026,1.179,16.357,-19.592,1.953
-0.059,-0.044,1.141,10.742,-11.658,2.441
-0.075,-0.041,1.218,2.991,-2.502,3.296
-0.083,-0.072,1.414,-2.441,4.700,5.249
-0.101,-0.073,1.773,-18.921,25.330,10.132
-0.068,0.020,1.794,-22.583,53.467,13.062
-0.046,0.004,1.275,-16.602,92.590,2.991
-0.041,-0.111,0.547,-8.667,121.704,-0.427
0.062,-0.004,0.140,11.780,92.712,6.409
0.133,0.048,0.133,2.747,53.467,8.118
0.161,0.124,0.200,-5.066,25.208,6.958
0.097,0.016,0.334,-1.709,0.793,3.784
0.083,0.001,0.347,5.371,-19.775,2.380
0.067,0.004,0.380,3.418,-36.560,2.136
0.047,-0.008,0.438,-1.526,-57.068,1.892
0.009,0.006,0.551,-1.770,-79.468,2.380
-0.036,0.020,0.973,5.310,-99.548,2.075
-0.177,0.168,3.041,56.641,-138.977,5.432
-0.216,-0.138,0.974,101.440,-66.284,5.981
-0.122,-0.216,1.626,20.569,8.850,-13.000
-0.037,-0.025,1.146,-23.437,-24.719,6.165
-0.011,-0.050,0.717,-16.541,14.771,0.183
-0.039,-0.025,0.902,-2.930,14.465,2.380
-0.044,-0.018,1.064,-3.357,14.465,2.747
-0.030,0.000,1.023,-11.475,28.381,1.343
-0.007,-0.004,1.085,-18.005,31.616,1.587
0.011,-0.000,0.952,-14.587,27.771,2.014
0.010,-0.002,0.925,-6.348,13.428,2.747
0.015,0.014,0.871,2.197,3.662,3.601
0.005,-0.003,0.832,5.920,2.808,3.052
0.012,-0.003,0.771,4.150,2.136,2.380
0.013,0.001,0.750,2.014,-0.488,2.014
0.010,0.001,0.915,3.845,-7.751,1.770
-0.010,-0.010,1.037,12.146,-16.724,1.648
-0.026,-0.016,1.091,16.479,-18.066,2.075
-0.053,-0.036,1.212,14.282,-17.273,2.563
-0.074,-0.053,1.254,10.437,-10.559,3.540
-0.062,-0.009,1.395,0.122,-3.906,5.493
-0.038,0.002,1.511,-16.846,22.034,4.272
-0.014,0.012,1.255,-13.855,53.040,3.052
-0.000,-0.014,0.723,-12.085,81.543,-0.488
0.011,-0.035,0.548,-2.441,66.467,2.380
0.027,-0.039,0.580,6.104,25.146,5.188
0.053,0.001,0.450,1.465,24.597,3.723
0.064,0.032,0.583,-0.427,4.211,5.249
0.062,0.019,0.507,3.479,-6.042,3.601
0.050,0.008,0.534,2.930,-20.325,2.563
0.026,-0.001,0.534,1.282,-35.034,1.831
-0.000,-0.001,0.687,3.357,-51.514,1.648
-0.061,0.003,1.509,18.188,-72.815,1.831
-0.033,0.220,2.388,65.308,-115.173,9.583
-0.096,0.130,1.912,-93.262,83.069,5.005
-0.055,-0.015,0.682,-21.851,186.035,-7.385
0.011,-0.049,-0.145,-14.038,183.655,-4.883
0.192,0.092,-0.187,-0.061,96.191,1.709
0.147,0.041,-0.052,9.949,18.066,5.920
0.099,0.017,0.233,11.719,-19.165,4.761
0.114,0.007,0.355,24.597,-47.607,4.517
0.083,-0.024,0.254,14.465,-32.410,1.709
0.055,0.019,0.268,3.845,-47.913,3.479
0.024,-0.006,0.473,-3.418,-82.520,3.357
0.005,0.036,0.713,-6.897,-98.755,2.991
0.014,0.172,1.560,4.456,-111.389,3.174
-0.015,0.404,1.368,149.536,-177.124,8.789
-0.229,-0.255,0.939,121.826,-28.687,2.991
-0.128,-0.030,1.089,-6.104,-10.010,-3.479
-0.022,-0.035,1.078,-26.184,-12.634,1.892
-0.019,-0.045,0.660,-9.766,4.761,0.916
-0.050,-0.022,0.993,7.263,7.812,1.892
-0.067,-0.010,1.146,8.240,2.075,2.747
-0.069,-0.054,1.278,-8.850,21.729,-0.122
-0.026,0.022,1.193,-29.602,44.250,-0.549
0.023,-0.005,1.012,-34.546,53.223,1.160
0.014,0.005,0.740,-21.179,42.236,2.747
0.020,0.010,0.843,3.357,9.399,4.150
0.007,-0.000,0.775,6.897,7.751,3.296
0.015,-0.000,0.708,4.883,4.456,2.502
0.020,0.002,0.646,2.563,0.854,2.197
0.015,0.002,0.682,0.977,-7.385,1.648
0.003,0.006,0.975,5.981,-20.325,1.465
-0.024,-0.007,1.142,24.841,-36.194,2.747
-0.055,-0.034,1.255,33.142,-39.246,3.662
-0.055,-0.026,1.288,18.127,-28.870,3.296
-0.048,-0.049,1.126,2.747,-2.014,1.099
-0.035,-0.011,0.997,-7.446,19.226,1.648
-0.023,-0.006,0.959,-10.803,23.193,2.502
-0.018,-0.012,0.953,-10.254,21.790,2.075
-0.040,-0.023,1.181,-10.132,19.897,2.319
-0.044,-0.014,1.616,-4.700,6.104,5.249
-0.118,-0.094,2.354,-28.015,6.348,9.277
-0.070,0.153,2.007,-93.384,81.604,4.578
-0.092,-0.036,0.889,-35.767,184.753,-6.775
0.050,-0.071,-0.272,-13.367,187.927,-4.272
0.156,0.018,-0.314,-8.423,137.329,-1.770
0.162,0.079,0.055,3.174,16.968,7.141
0.141,0.021,0.198,22.949,-40.955,5.127
0.092,-0.005,0.129,27.832,-36.255,4.639
0.087,0.007,0.164,31.982,-56.030,4.700
0.045,0.011,0.226,14.282,-65.674,3.723
0.000,-0.005,0.527,-3.296,-91.125,3.174
-0.025,0.021,0.857,-9.277,-109.741,2.136
0.021,0.194,1.511,0.549,-103.455,2.625
-0.126,0.123,1.437,149.231,-163.635,6.409
-0.195,-0.210,0.887,110.901,-18.677,4.333
-0.110,0.017,1.363,-7.019,-18.860,-0.793
-0.025,-0.032,0.978,-23.071,-12.451,1.709
-0.033,-0.052,0.680,-10.742,9.888,1.099
-0.053,0.004,0.936,6.897,10.132,1.221
-0.059,-0.052,1.123,8.911,-1.709,0.732
-0.063,-0.048,1.282,-7.629,20.569,-0.610
-0.031,0.012,1.229,-25.208,39.246,1.465
0.032,-0.003,1.030,-30.884,49.011,1.099
0.016,-0.014,0.758,-23.743,43.274,2.441
0.027,0.009,0.881,1.404,10.620,4.089
0.014,-0.000,0.737,6.531,10.315,3.174
0.022,-0.001,0.692,4.395,5.798,2.319
0.026,0.004,0.649,2.380,2.319,1.892
0.019,0.001,0.683,0.916,-6.592,1.465
0.005,0.013,0.935,4.883,-19.043,1.465
-0.023,-0.007,1.140,22.827,-35.400,2.258
-0.056,-0.032,1.239,33.936,-40.283,3.479
-0.057,-0.015,1.291,19.592,-30.334,3.845
-0.053,-0.044,1.151,3.845,-4.456,1.831
-0.038,-0.004,1.006,-6.470,18.677,1.648
-0.027,-0.005,0.945,-11.658,24.841,1.953
-0.014,-0.000,0.930,-9.949,22.156,2.075
-0.002,-0.003,0.898,-8.728,20.203,1.709
0.003,-0.002,0.888,-3.235,12.146,2.197
-0.015,-0.002,0.996,1.343,2.441,2.625
-0.065,-0.023,1.240,4.700,-3.357,3.601
-0.128,-0.203,1.780,3.906,-10.681,7.263
-0.081,0.001,2.094,-25.146,16.968,13.672
-0.070,0.098,1.795,-48.401,74.341,4.395
-0.004,-0.052,0.938,-6.775,128.540,-4.700
0.039,-0.018,-0.043,4.089,154.541,-6.104
0.097,-0.018,-0.358,5.310,113.464,-2.563
0.118,0.017,0.001,-6.836,26.306,4.089
0.127,0.041,0.318,-4.150,-22.400,5.310
0.105,0.004,0.362,5.615,-28.137,2.869
0.070,-0.016,0.240,9.460,-31.555,2.441
0.043,0.001,0.369,2.136,-55.725,3.296
0.034,0.017,0.550,-3.540,-87.219,3.784
-0.009,0.033,0.735,-0.793,-101.807,3.540
-0.138,0.000,1.912,23.193,-122.559,2.869
-0.136,0.386,1.787,172.668,-147.827,15.320
-0.224,-0.346,1.007,71.106,10.315,-4.395
-0.100,-0.027,1.186,-22.461,-17.029,0.488
0.002,-0.033,0.964,-25.085,-1.770,1.465
-0.031,-0.026,0.612,-4.944,13.916,1.831
-0.051,-0.014,1.101,4.456,6.042,2.869
-0.060,-0.007,1.116,0.793,11.902,2.380
-0.043,-0.031,1.181,-17.029,30.273,-0.427
-0.004,0.007,1.127,-26.184,40.588,1.587
0.008,-0.013,0.866,-24.048,40.833,0.916
0.014,0.012,0.920,-7.629,19.531,3.418
0.017,0.017,0.783,5.249,5.981,3.967
0.007,-0.006,0.792,5.798,5.493,3.113
0.016,-0.001,0.690,3.479,3.479,2.380
0.016,0.001,0.673,1.465,-1.953,2.014
0.009,0.007,0.837,3.113,-11.841,1.648
-0.009,0.007,1.142,14.404,-25.574,1.831
-0.041,-0.017,1.146,24.597,-27.466,2.258
-0.055,-0.042,1.202,23.376,-28.076,2.869
-0.048,-0.016,1.231,14.160,-19.714,4.272
-0.043,-0.037,1.062,-2.686,6.958,1.282
-0.028,-0.003,0.981,-10.132,21.118,1.587
-0.013,-0.002,0.933,-10.254,22.644,2.197
-0.007,-0.010,0.888,-9.827,22.095,1.709
-0.004,-0.004,0.940,-4.761,13.672,2.319
-0.024,-0.006,1.080,-0.671,6.042,2.747
-0.137,0.364,2.859,-107.849,36.499,18.250
-0.057,-0.070,1.047,-26.855,166.077,-9.399
-0.013,-0.073,-0.328,2.014,239.075,-13.550
0.098,-0.051,-0.606,13.489,136.475,-3.479
0.172,0.085,0.005,-8.484,19.836,6.470
0.130,0.005,0.340,-2.869,-30.945,3.723
0.086,0.025,0.359,6.531,-10.254,2.686
0.122,-0.014,0.165,19.409,-17.395,2.502
0.081,0.009,0.073,7.935,-35.095,2.991
0.034,0.006,0.325,-2.502,-74.585,3.784
0.009,0.002,0.544,-4.089,-109.558,3.845
-0.027,0.061,0.943,0.183,-122.314,4.517
-0.209,-0.159,2.141,81.360,-162.781,4.944
-0.179,-0.051,0.968,208.130,-81.299,17.395
-0.174,-0.171,1.438,26.245,8.484,-6.042
-0.051,-0.019,1.039,-35.095,-27.954,2.502
0.015,-0.065,0.946,-27.649,-5.920,-0.366
-0.038,-0.016,0.631,0.488,10.925,0.793
-0.057,-0.013,1.124,10.254,1.892,2.441
-0.079,-0.048,1.221,2.991,13.245,0.977
-0.050,-0.033,1.237,-20.569,35.461,-1.404
-0.002,0.003,1.167,-35.645,50.232,1.465
0.019,-0.007,0.701,-30.640,50.537,1.404
0.006,0.011,0.906,-4.456,19.409,4.211
0.020,0.021,0.769,6.531,7.629,4.028
0.009,-0.005,0.774,6.409,6.348,3.052
0.020,-0.001,0.668,3.662,4.333,2.380
0.021,0.000,0.630,0.977,-2.075,2.014
0.011,0.004,0.745,1.526,-12.878,1.526
-0.039,-0.013,1.202,31.372,-38.086,2.991
-0.059,-0.045,1.277,28.320,-33.997,2.808
-0.052,-0.037,1.253,12.512,-19.287,3.357
-0.077,-0.074,1.257,-4.272,7.141,1.343
-0.082,-0.033,1.562,-14.404,17.456,4.700
-0.131,-0.233,2.244,-46.143,30.396,9.949
-0.112,0.266,2.942,-120.300,54.871,15.198
-0.148,0.072,2.181,-45.227,149.475,-5.981
-0.085,-0.063,0.538,-10.254,241.821,-16.113
-0.077,-0.227,-0.838,-19.653,292.969,-17.700
0.104,0.047,0.136,-31.738,128.784,1.282
0.198,0.071,0.692,-15.259,16.602,5.615
0.091,-0.106,0.136,-4.456,78.918,-0.732
0.068,-0.110,-0.514,35.706,75.134,2.258
0.071,-0.078,-0.175,26.245,-7.202,13.977
0.083,-0.041,0.213,4.150,-64.331,13.672
0.058,-0.048,0.147,3.357,-63.110,15.015
0.043,-0.068,-0.086,11.292,-53.101,16.357
0.049,-0.051,0.021,15.076,-93.689,19.653
0.159,0.122,0.137,9.949,-136.902,23.804
-0.050,0.107,0.831,6.531,-189.331,24.658
0.021,0.383,1.911,26.794,-242.493,33.203
-0.018,0.803,2.646,225.342,-204.956,26.245
-0.263,-0.120,0.272,202.454,31.250,-4.822
-0.289,-0.097,1.496,-31.128,-42.358,-19.470
-0.047,-0.328,1.369,-69.336,-44.434,-9.216
0.042,0.005,0.527,-27.832,-15.686,7.751
0.001,0.064,1.107,14.465,8.789,10.254
-0.076,-0.041,1.056,32.166,28.992,-1.221
-0.130,-0.110,0.960,15.320,2.014,1.831
-0.096,-0.369,1.500,-13.000,-9.338,0.305
-0.078,-0.010,1.579,-41.138,22.766,10.132
0.032,0.132,1.243,-56.824,89.172,2.686
0.052,-0.033,0.747,-40.649,90.820,2.136
-0.000,-0.016,0.957,-12.329,57.983,1.099
0.090,0.047,0.819,4.333,31.494,7.874
0.034,-0.002,0.758,11.780,32.104,2.014
0.043,-0.012,0.599,7.141,23.132,1.770
0.059,0.009,0.577,-1.038,18.555,1.892
0.055,0.002,0.417,-2.197,10.925,1.404
0.061,0.002,0.401,-1.953,-5.066,1.526
0.046,0.006,0.446,1.587,-26.123,1.892
0.014,-0.000,0.707,3.662,-50.049,2.380
-0.014,-0.000,1.077,9.766,-65.491,2.991
-0.035,0.074,1.792,40.710,-87.463,6.653
-0.132,-0.072,1.665,58.350,-77.087,5.798
-0.090,-0.046,1.455,17.700,-13.062,-0.427
-0.042,-0.017,1.192,-9.949,10.498,3.479
-0.033,-0.027,0.853,-20.508,39.429,0.305
-0.002,0.015,0.790,-16.357,36.499,2.136
0.003,0.003,0.782,-10.986,22.949,1.892
0.006,-0.019,0.801,-7.507,19.165,1.221
0.014,0.001,0.971,-0.183,3.601,2.136
-0.007,-0.015,0.995,8.240,-7.935,2.686
-0.017,-0.008,1.074,9.155,-10.437,2.747
-0.013,-0.012,0.991,6.226,-4.272,2.686
-0.005,-0.012,0.919,2.991,2.258,2.380
-0.002,-0.008,0.923,1.587,3.784,2.075
-0.003,-0.007,0.943,2.197,1.892,1.892
-0.005,-0.005,0.972,3.296,-1.465,1.892
-0.007,-0.008,0.961,4.883,-4.089,2.197
-0.015,-0.011,0.998,5.859,-5.371,2.319
-0.019,-0.011,1.040,5.310,-3.906,2.441
-0.020,-0.011,1.054,2.808,0.732,2.502
-0.013,-0.007,0.999,0.061,6.104,2.380
-0.004,-0.002,0.946,-1.160,7.996,2.319
-0.001,-0.001,0.914,0.122,6.287,2.380
-0.001,-0.003,0.915,2.197,2.930,2.258
-0.003,-0.003,0.938,3.479,0.000,2.502
-0.005,-0.005,0.963,4.028,-1.587,2.441
-0.007,-0.007,0.982,4.150,-2.075,2.319
-0.008,-0.009,0.989,3.906,-1.648,2.319
-0.010,-0.010,0.991,3.601,-0.854,2.319
-0.010,-0.010,0.991,3.235,0.061,2.319
-0.010,-0.010,0.987,2.686,1.038,2.258
-0.009,-0.010,0.977,2.319,2.014,2.380
-0.008,-0.010,0.965,2.075,2.319,2.502
-0.008,-0.011,0.958,2.319,1.953,2.380
-0.020,-0.013,1.028,2.502,1.587,2.258
-0.054,-0.036,1.239,1.404,3.418,2.625
-0.089,-0.044,1.588,2.258,6.775,5.493
-0.049,-0.000,1.971,-11.475,25.330,10.376
-0.048,0.107,1.779,-24.963,59.937,7.446
-0.025,0.016,0.950,-18.555,100.098,-0.610
0.031,-0.022,0.188,3.235,114.319,-3.784
0.087,-0.005,0.074,2.747,79.285,0.854
0.104,0.027,0.230,-12.207,44.678,2.441
0.129,0.039,0.330,-9.094,18.677,2.991
0.117,0.013,0.275,6.287,-7.080,2.747
0.078,-0.005,0.343,8.240,-29.419,2.441
-0.174,-0.136,1.355,93.140,-72.632,3.052
-0.130,-0.137,1.246,6.042,11.108,-7.751
-0.038,-0.005,1.189,-13.550,-22.278,6.104
-0.029,-0.048,0.786,-16.541,18.311,0.549
-0.033,-0.013,0.869,-4.761,23.193,1.404
-0.046,-0.013,1.114,2.258,5.798,4.272
-0.037,0.002,1.108,-7.935,23.010,2.014
-0.018,0.002,1.080,-22.278,38.269,0.671
0.010,0.010,0.979,-20.691,36.011,1.648
-0.000,-0.006,0.855,-8.728,23.560,2.380
0.006,0.013,0.914,4.028,6.104,3.723
0.000,-0.000,0.880,5.493,6.592,3.113
0.007,-0.003,0.773,3.296,7.690,2.625
0.016,0.001,0.708,1.038,5.249,2.075
0.016,0.003,0.708,0.793,-2.136,1.892
0.010,0.004,0.831,4.456,-13.733,1.953
-0.010,0.007,1.140,14.771,-26.855,2.441
-0.041,-0.033,1.173,26.428,-32.898,3.052
-0.044,-0.010,1.275,21.973,-28.198,3.967
-0.062,-0.052,1.236,5.981,-7.202,2.991
-0.095,-0.053,1.456,-6.592,12.573,4.150
-0.122,-0.112,1.847,-18.066,31.921,8.911
-0.118,0.009,2.384,-46.753,49.683,13.916
-0.085,0.157,2.081,-68.481,85.571,10.620
-0.045,0.031,0.816,-0.671,173.950,-7.629
0.040,-0.043,-0.343,17.944,190.308,-9.094
0.066,-0.057,-0.440,0.183,127.502,-2.563
0.109,0.062,0.212,-26.306,29.846,5.066
0.121,-0.033,0.758,-13.367,-15.015,3.174
0.111,-0.039,0.168,0.610,31.799,2.563
0.090,-0.043,-0.256,8.728,32.776,1.953
0.077,-0.046,-0.002,5.554,-42.603,8.850
0.132,0.067,0.214,10.071,-97.900,12.146
0.027,0.047,0.407,16.724,-117.798,11.658
-0.020,0.002,0.927,10.437,-142.456,10.864
0.030,0.145,1.327,7.263,-142.578,11.475
-0.281,0.165,1.925,121.277,-181.519,13.062
-0.276,-0.163,0.822,156.738,-32.593,5.859
-0.193,-0.167,1.439,2.869,-4.333,-9.094
-0.014,0.003,1.204,-42.542,-36.377,2.991
0.006,-0.113,0.738,-26.123,6.531,-4.028
-0.027,0.028,0.597,-0.183,19.348,1.038
-0.037,0.005,1.130,15.930,-1.831,1.648
-0.097,-0.166,1.297,9.521,5.432,-2.502
-0.055,-0.007,1.282,-21.729,36.377,-0.488
-0.009,-0.002,1.187,-38.208,54.626,2.563
0.021,0.002,0.676,-29.907,56.274,1.709
-0.000,0.006,1.011,-3.113,21.545,3.723
0.017,0.016,0.925,3.540,14.587,4.395
0.011,-0.003,0.840,5.188,17.944,2.930
0.021,-0.002,0.708,3.479,17.273,2.197
0.033,-0.002,0.612,-0.549,12.268,2.014
0.036,0.003,0.578,-2.747,1.953,1.770
0.033,0.007,0.606,0.305,-12.512,1.892
0.009,0.002,0.786,7.568,-29.663,2.014
-0.057,-0.073,1.388,18.188,-45.898,3.113
-0.095,0.019,2.032,36.499,-58.533,8.911
-0.160,-0.157,1.901,5.920,-4.883,5.310
-0.130,-0.158,2.286,-41.077,35.889,10.925
-0.135,0.304,2.500,-93.994,56.458,14.709
0.004,0.012,0.972,-11.597,153.320,-7.141
0.005,-0.097,-0.232,10.315,223.450,-15.564
0.052,-0.048,-0.548,6.897,139.709,-4.822
0.113,0.033,0.055,-24.780,51.392,3.784
0.141,0.042,0.746,-21.729,-9.094,5.554
0.128,-0.002,0.336,0.366,8.362,1.404
0.107,-0.037,-0.064,12.634,20.691,3.113
0.099,-0.013,0.009,9.399,-28.198,5.493
0.122,0.082,0.221,10.315,-82.031,8.484
0.021,0.040,0.449,14.771,-113.464,7.202
-0.011,0.021,0.839,8.362,-129.578,5.066
-0.035,0.054,1.132,2.991,-123.535,4.395
-0.511,0.067,2.679,87.036,-165.649,8.545
-0.246,-0.128,1.094,186.768,-77.393,14.221
-0.163,-0.163,1.313,10.803,6.592,-9.521
-0.045,0.005,1.153,-35.828,-22.522,3.601
0.008,-0.091,0.790,-24.841,6.104,-1.526
-0.039,-0.006,0.642,-1.831,14.771,0.732
-0.037,0.018,1.127,11.841,0.305,2.686
-0.081,-0.092,1.230,6.409,9.705,-0.549
-0.046,-0.012,1.223,-22.949,39.368,-2.808
-0.003,0.000,1.187,-35.767,49.561,2.258
0.025,0.015,0.763,-28.076,50.903,1.465
0.003,-0.004,0.963,-2.808,22.461,4.089
0.017,0.019,0.922,4.578,11.292,3.967
0.012,-0.003,0.864,5.432,16.235,2.930
0.024,-0.002,0.716,3.479,17.029,2.258
0.031,-0.002,0.625,-0.427,12.573,2.014
0.034,0.004,0.594,-2.869,2.502,1.770
0.031,0.007,0.621,0.427,-12.146,2.014
0.005,0.003,0.802,7.568,-29.236,2.075
-0.027,-0.002,1.280,18.433,-44.922,2.441
-0.069,-0.051,1.411,40.710,-60.486,4.456
-0.113,-0.028,1.801,17.395,-36.865,6.226
-0.148,-0.107,1.688,-6.470,16.968,3.479
-0.100,-0.125,2.037,-32.349,48.096,10.254
-0.103,0.247,2.305,-72.144,62.195,12.207
-0.018,-0.029,1.328,-29.846,126.038,-1.465
0.007,-0.019,0.297,1.587,182.190,-7.202
0.050,-0.045,-0.289,9.033,152.710,-4.700
0.082,-0.025,-0.060,-13.123,92.346,-0.061
0.134,0.062,0.400,-19.287,18.433,5.188
0.123,-0.009,0.492,-3.357,-1.099,2.747
0.103,-0.031,0.017,5.371,27.161,1.587
0.082,-0.045,-0.006,6.348,-3.845,3.357
0.110,0.032,0.119,7.690,-61.890,7.996
0.099,0.067,0.226,12.390,-87.219,8.179
-0.009,0.011,0.474,12.329,-120.422,7.568
-0.012,0.055,1.022,4.822,-143.677,7.019
-0.124,0.106,2.054,23.254,-148.743,5.798
-0.214,0.369,2.324,180.359,-148.376,13.489
-0.287,-0.336,0.515,102.417,32.104,-4.883
-0.141,-0.035,1.265,-29.846,-39.368,0.183
0.019,-0.034,1.127,-36.804,-21.423,1.587
-0.007,-0.035,0.592,-20.264,14.648,-1.648
-0.043,0.009,0.911,5.066,15.564,2.747
-0.057,-0.030,1.177,14.954,-0.732,1.221
-0.078,-0.110,1.246,-4.883,25.818,-2.991
-0.031,0.006,1.244,-29.785,44.312,1.770
-0.169,0.231,2.726,-103.455,54.871,18.494
-0.003,0.055,0.979,5.554,174.622,-11.047
-0.063,-0.080,-0.473,26.489,258.667,-17.578
0.052,-0.062,-1.104,9.705,169.800,-10.315
0.090,0.081,0.295,-41.565,32.837,5.310
0.141,0.242,0.931,-20.386,-26.245,7.690
0.105,-0.130,0.248,-8.606,56.335,1.160
0.107,-0.053,-0.266,9.766,52.124,4.028
0.084,-0.029,0.058,3.723,-25.513,10.315
0.072,-0.052,0.291,11.597,-90.698,14.160
0.092,0.017,0.077,22.278,-87.402,14.648
0.119,0.041,0.127,23.437,-97.168,15.930
-0.025,0.016,1.024,14.343,-162.781,19.226
0.004,0.167,1.421,19.165,-179.382,22.156
-0.299,0.116,2.822,96.069,-182.495,14.709
-0.165,-0.001,0.976,184.570,-55.298,9.399
-0.263,-0.301,0.917,20.935,13.794,-10.742
-0.063,-0.005,1.169,-44.556,-43.640,2.502
0.023,-0.098,0.866,-31.311,-5.310,-2.502
-0.016,0.018,0.575,-5.005,10.925,2.197
-0.047,-0.010,1.191,17.212,0.732,2.563
-0.093,-0.056,1.264,22.583,-2.441,1.099
-0.091,-0.084,1.346,-13.489,31.555,-3.296
-0.054,-0.016,1.314,-40.222,52.124,3.601
0.051,0.092,1.041,-39.856,67.261,2.075
-0.004,-0.014,0.767,-16.418,52.002,2.319
-0.001,-0.001,1.055,0.122,21.240,4.272
0.023,0.026,0.966,3.235,28.320,3.418
0.018,-0.015,0.770,6.042,29.419,2.563
0.036,-0.007,0.680,0.488,28.259,2.197
0.036,0.005,0.734,-4.578,20.569,2.380
0.006,-0.005,1.088,-4.272,12.390,2.747
-0.021,-0.036,1.511,1.709,7.812,4.700
-0.032,0.020,1.964,6.714,8.789,8.911
-0.023,0.005,1.664,-3.906,52.673,3.052
0.014,0.024,1.229,-3.723,87.036,-0.488
0.026,-0.063,0.514,-11.902,114.807,-3.601
0.118,0.031,0.093,-11.108,110.840,-1.099
